time_tick,acc_X_value,acc_Y_value,acc_Z_value
0.029435,0.288512,-2.647633,-9.510857
0.042486,0.287165,-2.645238,-9.379470
0.076087,0.058361,-2.791140,-9.011498
0.109337,0.149493,-2.384261,-9.882719
0.142761,0.167151,-2.628329,-9.557545
0.176071,0.199175,-2.850997,-9.220250
0.209242,0.262174,-2.771986,-9.291331
0.242414,0.212194,-2.585680,-9.067016
0.276085,0.234191,-2.765102,-8.923508
0.309716,0.581961,-2.822266,-9.703747
0.342694,0.527641,-2.726345,-9.972056
0.376029,0.480354,-2.585232,-10.001087
0.409754,0.172089,-2.681153,-9.354330
0.443104,0.073924,-2.614262,-9.109215
0.476243,0.319039,-2.769741,-9.252423
0.509593,0.270854,-2.889306,-9.014042
0.542704,0.262923,-2.985078,-8.944758
0.576176,0.147997,-2.669181,-9.333081
0.609325,0.260229,-2.736221,-9.334278
0.642699,0.139467,-2.769442,-9.438430
0.676101,0.179123,-2.678459,-9.786948
0.709363,0.151139,-2.673671,-9.617552
0.742692,-0.011822,-2.657060,-9.339665
0.776043,0.028133,-2.731433,-9.083477
0.809330,0.197678,-2.760015,-9.291929
0.843071,0.361537,-2.836632,-9.428852
0.876042,0.081555,-2.563683,-9.577598
0.909401,-0.033221,-2.681003,-9.349392
0.942693,-0.094125,-2.771836,-9.254518
0.976043,-0.138869,-2.475244,-9.501130
1.009327,-0.032622,-2.704796,-9.414038
1.042690,-0.171341,-2.594809,-9.389197
1.076041,-0.110736,-2.666637,-9.254668
1.109379,-0.065095,-2.661699,-9.500382
1.142661,-0.167301,-2.556500,-9.537344
1.175977,-0.058510,-2.688036,-9.445313
1.209340,-0.168797,-2.606930,-9.178799
1.242706,0.072577,-2.711979,-9.439178
1.276112,-0.043097,-2.731133,-9.332782
1.309414,-0.116123,-2.840971,-9.434090
1.342733,-0.062401,-2.704796,-9.529113
1.376032,-0.049981,-2.714373,-9.352086
1.409551,-0.005986,-2.599298,-9.867755
1.442778,-0.375753,-2.501282,-9.690129
1.476042,-0.985698,-2.474945,-8.974985
1.509350,-0.527192,-2.596904,-9.397876
1.542697,-0.285070,-2.659305,-9.268585
1.576040,-0.123904,-2.702402,-9.360017
1.609594,-0.473171,-2.707041,-9.100835
1.642705,-0.183313,-2.589870,-9.609172
1.676079,-0.284322,-2.470455,-9.304350
1.709722,-0.185408,-2.384111,-9.831392
1.742710,-0.002993,-2.845610,-9.736369
1.776068,-0.367373,-2.828850,-9.405658
1.809078,-0.280132,-2.623391,-9.278012
1.842709,0.017808,-3.001538,-9.035890
1.876178,-0.435311,-2.525225,-9.492451
1.909331,-0.543952,-2.838278,-9.431546
1.942721,-0.208153,-2.891401,-9.105175
1.976032,-0.385480,-3.082196,-9.520733
2.009375,-0.068536,-2.458035,-10.258024
2.042746,-0.288512,-3.027426,-9.421670
2.076038,-0.839796,-3.084889,-8.615094
2.109335,-0.937812,-3.022937,-8.152398
2.143347,-0.914767,-2.969664,-9.175058
2.175989,-0.312754,-2.811791,-10.031315
2.209361,-0.117470,-3.469921,-9.166678
2.241890,-0.731006,-3.365021,-8.102417
2.276084,-0.242571,-2.730236,-10.546835
2.309332,-0.027385,-3.058103,-10.150281
2.342662,0.089038,-3.614027,-8.182027
2.376053,-0.128992,-3.176770,-7.624907
2.408945,0.504895,-3.039697,-9.673519
2.442678,1.484608,-2.457736,-12.490248
2.476043,-0.425285,-3.968980,-9.703148
2.510645,-1.507653,-3.536961,-7.444138
2.542663,-0.770811,-3.290798,-8.167362
2.576059,-0.431421,-3.350356,-8.842551
2.609354,0.012121,-3.460194,-9.447259
2.642659,-0.041301,-3.412158,-9.792036
2.676133,0.113280,-2.171618,-9.816128
2.709348,-0.965496,-3.554020,-7.648550
2.742705,-0.617427,-2.893646,-8.822948
2.776041,-0.044145,-2.680404,-10.112122
2.809411,-0.250951,-2.766449,-9.997196
2.842718,-0.099363,-2.879130,-9.665737
2.876051,-0.208752,-2.948565,-9.284597
2.909748,0.167151,-2.939287,-9.361663
2.942800,-0.113130,-3.340928,-8.886846
2.976224,0.072278,-3.022638,-9.663942
3.009367,0.225213,-2.919684,-10.085336
3.042231,0.196032,-2.711829,-10.018595
3.076077,0.285968,-2.819423,-9.948413
3.110094,-0.244068,-2.953503,-9.115201
3.142724,0.020052,-3.166894,-8.383447
3.176388,0.287913,-3.109580,-8.621828
3.209361,0.440998,-3.037153,-9.949161
3.242700,0.139467,-3.355294,-9.278461
3.276159,-0.417354,-2.991512,-9.215162
3.309407,-0.587498,-2.764504,-8.922910
3.342738,0.117021,-3.087433,-9.388598
3.376109,0.171491,-3.405275,-9.596004
3.409437,0.200970,-3.216575,-9.423615
3.442735,0.159519,-3.568236,-8.955681
3.476059,0.074373,-3.635126,-8.813221
3.509442,0.133482,-3.409914,-9.842615
3.542700,-0.203215,-3.398242,-8.954784
3.576025,0.111334,-3.800183,-8.717300
3.609336,0.352110,-3.683012,-9.101883
3.642714,0.319937,-3.568535,-8.765036
3.676056,-0.158173,-3.809610,-8.746481
3.709371,-0.295096,-3.575120,-8.881758
3.742748,-0.408525,-3.199366,-9.389646
3.776125,-0.504446,-3.122749,-9.574605
3.809369,-0.109688,-3.424130,-9.651671
3.842828,-0.065244,-3.522595,-9.142137
3.876496,-0.198875,-3.553870,-8.713410
3.909528,-0.073026,-3.740475,-8.449140
3.942532,0.264718,-3.914659,-9.432743
3.976013,0.214887,-3.658620,-9.655412
4.009436,0.019603,-3.517657,-9.478235
4.042706,-0.181517,-3.096711,-9.391891
4.076083,-0.523601,-3.242763,-8.707274
4.108638,-0.346423,-3.243062,-8.518874
4.142709,0.215187,-3.336289,-8.995636
4.176016,0.398350,-3.498951,-9.153809
4.209253,0.271602,-3.111526,-9.320062
4.242813,0.150990,-3.216425,-9.452795
4.276288,0.075270,-3.484286,-9.327095
4.309361,0.377998,-3.527234,-9.698958
4.342705,0.307516,-3.515113,-10.032063
4.375855,0.192291,-3.472315,-9.540935
4.409427,-0.371264,-3.020842,-8.409185
4.442487,-0.455812,-3.288553,-8.352770
4.476075,-0.066441,-3.333596,-9.220998
4.509389,0.273847,-3.598913,-9.798171
4.542206,0.347321,-3.594124,-9.754326
4.576052,0.286117,-3.161357,-9.781112
4.609443,0.026337,-3.178566,-8.741842
4.642909,-0.124802,-3.566141,-8.282288
4.676150,0.088140,-3.367266,-9.176255
4.709288,0.201270,-3.326413,-9.686538
4.742648,-0.142759,-3.237824,-9.446510
4.776037,-0.095173,-2.902924,-9.840221
4.808983,0.199474,-3.235580,-9.519237
4.842818,0.352559,-3.496557,-9.123282
4.875072,0.456710,-3.508678,-9.031251
4.909319,0.244966,-3.403479,-8.663129
4.942703,0.327718,-3.391358,-9.020626
4.975767,0.443841,-3.128286,-9.344454
5.009320,0.661721,-3.568386,-9.208279
5.042745,0.708559,-3.616122,-9.346549
5.083081,0.874962,-3.628093,-9.497688
5.109330,0.594980,-3.386719,-9.211421
5.141982,0.378896,-3.269698,-8.659239
5.176011,0.593933,-3.573174,-9.125377
5.209326,0.517914,-3.515711,-9.169222
5.242728,0.659476,-3.623305,-9.447408
5.276028,0.559665,-3.295587,-9.469855
5.309204,0.550985,-3.640065,-9.149768
5.342701,0.445188,-3.453610,-9.060132
5.376042,0.323229,-3.465581,-8.831927
5.409473,0.397003,-3.453460,-9.244642
5.442557,0.453717,-3.460493,-9.413738
5.476219,0.536470,-3.635126,-9.353133
5.509329,0.298538,-3.369810,-9.188376
5.542672,0.210248,-3.640065,-8.792571
5.576237,0.245863,-3.432061,-8.959423
5.609033,0.399098,-3.302769,-9.421520
5.642660,0.356599,-3.350655,-9.249879
5.677253,0.413912,-3.479947,-9.050854
5.709126,0.515819,-3.362776,-9.176405
5.742724,0.574030,-3.448971,-9.049059
5.776230,0.414511,-3.223908,-9.287440
5.808967,0.495318,-3.439244,-9.049956
5.842715,0.663816,-3.491918,-9.174759
5.876124,0.764825,-3.463187,-9.451000
5.908991,0.625657,-3.472614,-9.399971
5.942635,0.546496,-3.226452,-9.350440
5.976066,0.470028,-3.396296,-8.916325
6.008855,0.648253,-3.465731,-9.065070
6.042635,0.684616,-3.618666,-9.122084
6.075995,0.756146,-3.621060,-9.326796
6.108891,0.537368,-3.346016,-9.176105
6.142672,0.382637,-3.444182,-8.800202
6.175964,0.588546,-3.678373,-9.080035
6.209379,0.518064,-3.529927,-9.398774
6.242702,0.366775,-3.324168,-9.527018
6.276143,0.110287,-3.106737,-9.202293
6.309474,0.094425,-3.295736,-8.860658
6.342704,0.270255,-3.482341,-8.791972
6.376044,0.448330,-3.687801,-9.162937
6.409433,0.385630,-3.529778,-9.526869
6.442210,0.184360,-3.462887,-9.244642
6.476027,0.172838,-3.388814,-9.055793
6.509300,0.279383,-3.494163,-8.978278
6.542714,0.422891,-3.649642,-9.010151
6.575968,0.261127,-3.508379,-9.274870
6.609568,0.307516,-3.584846,-9.374682
6.642424,0.151588,-3.467526,-9.314226
6.676045,0.224015,-3.465282,-9.382762
6.709494,0.170144,-3.295736,-9.012845
6.742491,0.252448,-3.645153,-8.500617
6.776032,0.394758,-3.852857,-8.867093
6.809366,0.410471,-3.613578,-9.399971
6.842010,0.404335,-3.678074,-9.500382
6.876073,0.203963,-3.565692,-9.297017
6.909310,0.097866,-3.568236,-8.774613
6.942706,0.292402,-3.740475,-8.889689
6.976109,0.238830,-3.675680,-9.220101
7.009327,0.255291,-3.577514,-9.411195
7.042740,0.211296,-3.544144,-9.320810
7.075344,0.330262,-3.668646,-9.063724
7.108644,0.495767,-3.759629,-9.133757
7.142353,0.367972,-3.563597,-9.010750
7.176006,0.394309,-3.817242,-8.594743
7.209346,0.574629,-3.948628,-8.934582
7.243061,0.547244,-3.475009,-9.439028
7.275981,0.499658,-3.623305,-9.255566
7.309321,0.533028,-3.687950,-9.030503
7.343039,0.675937,-3.850612,-9.017035
7.376101,0.568643,-3.836247,-9.030204
7.408671,0.508187,-3.800183,-9.181493
7.443028,0.366476,-3.692589,-9.106372
7.475997,0.399996,-3.683012,-9.106073
7.509365,0.274146,-3.788211,-8.966456
7.542871,0.384133,-3.744964,-9.417031
7.575994,0.369618,-3.675829,-9.170868
7.609350,0.373958,-3.723865,-8.905551
7.642258,0.424387,-3.793299,-8.716253
7.675858,0.454017,-3.802727,-9.029006
7.709399,0.439501,-3.625699,-9.210823
7.742582,0.282676,-3.723715,-8.865896
7.776031,0.334153,-3.604150,-8.975285
7.809476,0.341485,-3.711893,-8.786435
7.842320,0.475565,-3.907776,-9.048011
7.876061,0.423789,-3.797639,-9.330537
7.909399,0.269058,-3.819187,-9.167277
7.942261,0.397452,-3.847919,-9.326048
7.976173,0.219227,-3.823976,-9.198851
8.009379,-0.232395,-3.709050,-8.950444
8.042663,0.200821,-3.819187,-9.043821
8.076164,0.535422,-4.082409,-9.080783
8.109325,0.368870,-4.084804,-8.917672
8.142804,0.034418,-3.697228,-8.880561
8.176134,0.030078,-3.699623,-8.928446
8.209363,0.186455,-3.790456,-9.031999
8.241699,0.377848,-3.793000,-9.063275
8.276106,0.461499,-3.855251,-9.067165
8.311340,0.466587,-3.915108,-8.883105
8.342632,0.314250,-3.785967,-8.918271
8.375421,0.259032,-3.642309,-9.095598
8.409441,0.228505,-3.659069,-9.148571
8.442697,0.316644,-3.654131,-9.348345
8.476019,0.371863,-3.807365,-9.171018
8.509420,0.391616,-3.848068,-9.008206
8.542667,0.581512,-3.903287,-8.901062
8.576062,0.579268,-3.800482,-8.901062
8.609374,0.680426,-3.785967,-9.203490
8.642802,0.470777,-3.694984,-9.246288
8.676040,0.509385,-3.666252,-9.272176
8.709232,0.438753,-3.711893,-8.940717
8.742645,0.561460,-3.678373,-9.006261
8.776041,0.564154,-3.594723,-9.034992
8.809275,0.742828,-3.666551,-9.207531
8.842661,0.737291,-3.683311,-9.145429
8.876034,0.815853,-3.810059,-9.130315
8.909482,0.784728,-3.673734,-9.113854
8.942486,0.801338,-3.688399,-8.661932
8.976065,0.835307,-3.721770,-8.714158
9.009349,0.932874,-3.843729,-8.904354
9.042748,0.818697,-3.788510,-9.168474
9.075990,0.767369,-3.747808,-9.274122
9.109381,0.506242,-3.649791,-8.987705
9.142705,0.384882,-3.633031,-8.804991
9.175728,0.119714,-3.556564,-8.578432
9.209392,0.403138,-3.864828,-8.969898
9.242516,0.536769,-4.062956,-9.640148
9.276073,0.516717,-3.823677,-9.967717
9.309275,0.255291,-3.759330,-9.217557
9.342727,0.070931,-3.683012,-8.722388
9.376059,0.068088,-3.754990,-8.469192
9.413949,0.417653,-3.850163,-9.433342
9.442672,0.169545,-3.658620,-9.670227
9.476080,-0.114477,-3.498353,-9.436634
9.509400,-0.001945,-3.972122,-8.859611
9.542774,0.514472,-4.170399,-9.800566
9.576020,0.361837,-3.691991,-9.998094
9.609350,-0.002095,-3.563447,-8.794965
9.642712,0.121809,-3.943990,-8.157935
9.676044,0.346124,-4.001153,-8.805590
9.709349,0.456112,-3.833254,-9.889453
9.742766,0.166403,-3.357240,-10.007222
9.775997,-0.135726,-3.276283,-9.006560
9.809405,0.047287,-3.575868,-8.082066
9.842713,0.269507,-3.661913,-8.306830
9.876122,0.397601,-3.786116,-8.671061
9.909345,0.276540,-3.503590,-9.157550
9.942673,0.180769,-3.668646,-8.931589
9.975956,0.081555,-3.620910,-8.815466
10.009367,0.316345,-3.850612,-8.679141
10.042607,0.348069,-3.819337,-8.953736
10.076021,0.254543,-3.886227,-8.940418
10.109376,-0.042948,-3.606245,-9.000874
10.142342,-0.164308,-3.560904,-8.820554
10.176054,-0.073624,-3.754542,-9.053847
10.209324,0.009128,-3.608340,-9.631319
10.242672,-0.153534,-3.555816,-9.372587
10.276019,-0.150391,-3.579759,-9.224440
10.309317,-0.140215,-3.431911,-8.820255
10.342720,0.132284,-3.372054,-9.056241
10.375738,0.318141,-3.250095,-9.443817
10.409317,0.134679,-2.929710,-9.235364
10.442660,0.534974,-2.814933,-9.785452
10.475993,0.707661,-2.815233,-9.616355
10.509428,0.761383,-3.035507,-9.085123
10.547174,0.649001,-3.044935,-9.086320
10.576048,0.545299,-3.111825,-9.001472
10.609323,0.189897,-2.697763,-9.449802
10.642660,0.269357,-2.551712,-9.936441
10.676087,0.383685,-2.836183,-10.157614
10.709324,0.329813,-2.850548,-10.038647
10.742774,0.310808,-2.623690,-9.575203
10.775990,0.201270,-2.549916,-8.938173
10.809407,0.310509,-2.698212,-8.894029
10.842334,0.414511,-2.836781,-9.024368
10.875993,0.470926,-3.054063,-9.628476
10.909423,0.195733,-3.159112,-9.598099
10.942703,-0.294946,-2.871947,-9.476738
10.976054,-0.447732,-2.874342,-9.272775
11.009433,-0.441896,-3.096861,-8.954933
11.042594,-0.410770,-3.087284,-8.949696
11.076064,-0.026936,-3.482042,-8.917074
11.108740,0.000898,-3.639765,-9.093652
11.142663,-0.245714,-3.472165,-9.230127
11.175991,-0.616828,-3.075013,-9.341611
11.209324,-0.930629,-2.986574,-9.043821
11.242725,-0.905789,-3.029671,-8.909741
11.275755,-0.342233,-3.302470,-9.128369
11.309393,-0.430672,-3.457949,-8.916625
11.342599,-0.454316,-3.532022,-8.732863
11.376069,-0.528539,-3.235131,-9.562933
11.409113,-0.571636,-3.160758,-9.766597
11.442127,-0.567296,-3.086984,-9.281304
11.476041,-0.512228,-3.060946,-9.067914
11.509360,-0.405832,-3.331351,-8.770573
11.542746,-0.241075,-3.565692,-8.790326
11.576098,-0.376053,-3.297532,-9.315124
11.608861,-0.539014,-3.079801,-9.472249
11.642660,-0.698982,-2.857282,-9.452346
11.676013,-0.572983,-3.158963,-8.989800
11.709443,-0.319188,-3.498502,-9.073151
11.742668,-0.191842,-3.515113,-9.356276
11.776038,-0.250203,-3.536512,-9.493199
11.809424,-0.181966,-3.696779,-9.415983
11.842696,-0.339839,-3.579759,-9.164284
11.876032,-0.390867,-3.479199,-9.291480
11.909363,-0.082453,-3.672687,-9.766297
11.942726,-0.116871,-3.388365,-9.656609
11.976032,0.294946,-3.273888,-9.515795
12.009412,0.619372,-3.405724,-9.256613
12.042781,0.761683,-3.468275,-8.949097
12.076031,0.531681,-3.228996,-9.078239
12.109374,0.274744,-3.192782,-9.176554
12.142710,0.250802,-3.149535,-9.611866
12.176186,0.110586,-2.948714,-9.443517
12.209339,0.513874,-3.061395,-9.403413
12.242831,0.587648,-2.856085,-9.130015
12.276247,0.834559,-3.222112,-8.802447
12.309371,0.781884,-3.291397,-8.798257
12.342306,0.788020,-3.245756,-9.151863
12.375880,0.247659,-3.004082,-9.078838
12.409356,0.256937,-3.037453,-9.069111
12.442638,0.270405,-2.925071,-9.190920
12.475990,0.219077,-3.173927,-8.897470
12.509678,0.528988,-3.443883,-9.300608
12.542660,0.015114,-3.350655,-8.828036
12.575737,-0.100859,-3.458099,-8.936976
12.609644,0.123306,-3.469921,-9.345651
12.642610,0.234042,-3.658620,-9.664839
12.676032,0.463295,-3.594274,-9.647930
12.709408,0.492026,-3.534866,-9.210224
12.742188,0.159968,-3.907926,-8.585315
12.775966,-0.275343,-4.457863,-7.925839
12.809322,-0.542755,-4.469236,-8.609857
12.842639,-0.878853,-4.198383,-9.320960
12.876031,-0.796549,-3.959552,-9.174160
12.909105,-0.450874,-3.631984,-9.500082
12.942710,-0.496066,-3.345567,-8.826540
12.976010,-0.622515,-3.580208,-7.984199
13.009389,-0.751208,-3.993521,-8.282139
13.042793,-0.872418,-3.797639,-7.886632
13.076408,-0.751357,-3.857197,-8.480415
13.109322,-0.607999,-3.883234,-8.928297
13.142682,-0.728312,-3.968681,-9.735172
13.176066,-0.736842,-3.421137,-9.988367
13.209309,-0.986895,-3.393004,-8.963313
13.242703,-0.667258,-3.610884,-8.720892
13.276098,-0.380841,-3.709050,-8.701139
13.309325,-0.038309,-3.781028,-8.788231
13.342700,-0.178225,-3.725960,-8.658191
13.376006,-0.189448,-3.694385,-9.385007
13.410032,-0.173287,-3.601008,-9.762407
13.442702,-0.389221,-3.586792,-9.231773
13.475994,-0.392364,-3.581854,-9.387102
13.509367,-0.233892,-3.711145,-9.244492
13.542750,-0.266065,-3.663409,-9.137198
13.575807,-0.230151,-3.711295,-9.153509
13.609723,-0.197678,-3.668048,-9.504572
13.642497,-0.481252,-3.374000,-9.311532
13.675184,-0.592736,-3.371905,-8.731965
13.709432,-0.303925,-3.539355,-8.721640
13.742617,-0.062102,-3.541899,-8.774015
13.776034,0.206807,-3.788211,-8.933684
13.810058,0.232096,-3.804672,-9.277713
13.844776,0.054171,-3.663559,-9.384708
13.875992,-0.077066,-3.594274,-9.156652
13.909606,-0.113579,-3.620611,-8.877418
13.942680,0.184510,-3.675680,-9.287739
13.976030,0.198726,-3.776240,-9.060431
14.009445,0.201868,-3.757085,-8.909891
14.042692,0.372761,-3.924536,-9.049059
14.076031,0.299735,-3.759480,-9.121486
14.109376,0.169097,-3.651886,-8.955532
14.142733,0.140365,-3.627794,-9.168623
14.176053,0.212194,-3.709200,-9.196607
14.209371,-0.008829,-3.764268,-8.862005
14.242703,-0.212792,-3.632583,-8.763690
14.276039,-0.028582,-3.919598,-8.819207
14.309305,-0.089337,-3.897899,-8.934582
14.342696,-0.141113,-3.943541,-8.574242
14.376125,-0.138869,-4.038863,-9.021225
14.409333,-0.221472,-3.806917,-9.084225
14.442699,-0.281628,-3.852408,-9.049059
14.476072,-0.440848,-3.672836,-9.115201
14.509316,-0.406430,-4.065200,-8.794666
14.542700,-0.237783,-4.072084,-9.368846
14.576078,-0.230300,-3.854353,-9.591065
14.609277,-0.244666,-3.644404,-9.125077
14.642698,-0.208752,-3.541749,-8.904653
14.676070,-0.034119,-3.606395,-8.931439
14.709369,0.226110,-3.556115,-9.356575
14.742946,0.141263,-3.570481,-9.249879
14.775991,-0.112980,-3.666103,-8.932337
14.809360,0.062551,-3.721022,-9.284297
14.842709,0.012121,-3.653981,-9.253770
14.875764,-0.026188,-3.570481,-9.000724
14.909366,0.153534,-3.637820,-8.623474
14.942962,0.395806,-3.884132,-8.745283
14.982939,0.511629,-4.182969,-8.665224
15.009350,0.140964,-4.041706,-8.611802
15.042749,0.032772,-3.792850,-8.959572
15.075992,-0.017359,-3.661015,-9.383062
15.109366,-0.226260,-3.512719,-9.485717
15.142730,-0.272949,-3.586941,-9.161141
15.176109,-0.227906,-3.579908,-8.909741
15.209371,-0.128843,-3.582452,-8.793917
15.242743,0.256488,-4.015668,-8.462458
15.276113,0.402839,-4.087198,-8.977080
15.309357,-0.078563,-3.768907,-8.812473
15.342705,-0.104900,-3.735387,-9.030353
15.375587,-0.187652,-3.493714,-9.298813
15.409367,-0.235089,-3.527234,-9.115350
15.442703,-0.114926,-3.804822,-8.772369
15.475961,0.010475,-3.910170,-8.689766
15.508880,0.067489,-3.931569,-8.882656
15.542711,0.128992,-3.938602,-9.262150
15.576024,0.122857,-3.773546,-9.333829
15.609366,0.084399,-3.694834,-9.085572
15.642705,0.175232,-3.855102,-8.888641
15.677013,-0.014366,-3.733143,-8.780749
15.709366,-0.065993,-3.620761,-8.857815
15.742248,0.053871,-3.747508,-8.916325
15.776300,-0.007632,-3.728354,-8.737652
15.809133,0.067339,-3.814698,-8.406941
15.842682,0.228056,-3.821731,-8.904803
15.876406,0.187203,-3.704262,-9.318715
15.909053,-0.046988,-3.620461,-9.282951
15.942697,-0.235388,-3.570481,-8.869188
15.976167,-0.362136,-3.448372,-8.848986
16.013643,-0.273398,-3.546538,-8.671210
16.042663,0.124952,-3.551326,-9.070757
16.076004,0.231348,-3.732993,-9.423465
16.109396,0.091432,-3.979305,-9.102332
16.142698,0.096220,-3.993521,-9.334128
16.175970,-0.185258,-3.675231,-9.542731
16.209370,-0.469430,-3.376244,-9.526569
16.242793,-0.491278,-3.414702,-9.055942
16.275985,-0.135128,-3.764119,-8.894477
16.309382,0.121510,-3.883534,-9.228630
16.342785,0.148595,-3.861985,-9.295371
16.376073,-0.049981,-3.852558,-9.036938
16.409580,-0.109838,-3.783123,-9.013593
16.442742,-0.114178,-3.637371,-9.039930
16.475990,-0.037560,-3.613428,-9.060581
16.509397,-0.059857,-3.608640,-8.984413
16.542705,0.061054,-3.735537,-8.928147
16.576292,0.349267,-3.919747,-9.080484
16.609374,0.252597,-3.670891,-9.177003
16.642508,0.049532,-3.477253,-9.157550
16.675992,-0.022297,-3.515711,-8.692310
16.709372,-0.004639,-3.644853,-8.567957
16.742848,0.095771,-3.821582,-9.049657
16.776037,0.042199,-3.684808,-9.597650
16.809375,0.002394,-3.532022,-9.445014
16.842427,-0.068536,-3.594424,-8.836266
16.876116,0.066591,-3.594424,-8.980522
16.909125,0.222519,-3.692589,-9.050705
16.942699,0.271303,-3.709200,-9.136151
16.975530,0.192590,-3.642160,-9.366451
17.009219,0.111334,-3.548932,-9.125825
17.042701,0.111334,-3.637670,-8.707573
17.078568,0.243469,-3.754841,-8.782694
17.109326,0.212493,-3.709200,-9.222794
17.142736,0.080059,-3.527084,-9.554104
17.176287,-0.013019,-3.512868,-9.330387
17.209364,-0.069434,-3.678224,-8.766982
17.242937,0.157424,-3.783423,-9.003567
17.276248,0.171940,-3.594424,-9.218454
17.309372,-0.047287,-3.496258,-9.031999
17.342822,-0.171790,-3.522745,-8.784789
17.375949,0.010176,-3.685257,-8.854523
17.409369,0.031874,-3.637221,-9.313178
17.442708,-0.045641,-3.615673,-9.419275
17.475753,-0.052525,-3.601457,-9.003418
17.509007,-0.155778,-3.539505,-8.724782
17.542522,-0.094125,-3.429517,-8.666721
17.575966,-0.136923,-3.429517,-8.679141
17.609822,-0.161914,-3.532322,-8.600579
17.642667,-0.093228,-3.560904,-8.987106
17.675992,0.005088,-3.618067,-9.263347
17.709368,0.042798,-3.505835,-9.196008
17.742907,0.064346,-3.862135,-9.016586
17.776001,-0.067489,-3.936208,-8.970197
17.809392,-0.037560,-3.854802,-9.309288
17.842644,0.032024,-3.828615,-9.114902
17.876040,0.074073,-3.974816,-8.602973
17.909379,0.107444,-4.075226,-8.617039
17.942450,-0.104451,-4.012526,-9.104576
17.975991,0.042050,-4.273054,-9.428104
18.009374,0.029031,-4.224869,-9.985075
18.043439,-0.053722,-4.033775,-9.593909
18.075950,-0.134828,-3.936208,-8.930392
18.109285,-0.323977,-4.063255,-8.253557
18.142625,-0.179123,-3.861836,-9.243894
18.175960,-0.255291,-3.328508,-9.662894
18.209246,-0.137971,-3.464982,-9.260055
18.242627,0.159968,-3.680468,-9.225787
18.275974,0.352259,-3.599212,-9.321708
18.309320,0.123007,-3.309803,-9.295371
18.342762,-0.151139,-3.367415,-8.684079
18.376003,-0.158322,-3.408118,-8.471437
18.411242,0.330861,-3.646948,-9.338618
18.442651,0.282825,-3.634827,-9.539888
18.476155,-0.052225,-3.543994,-9.232820
18.509400,-0.273697,-3.247551,-9.048759
18.542707,-0.083052,-3.374598,-8.802896
18.576031,0.132284,-3.506134,-8.860359
18.609368,0.336098,-3.661613,-8.944159
18.642702,0.357796,-3.668646,-9.173412
18.676430,-0.002993,-3.365021,-8.916774
18.709372,-0.099662,-3.336289,-8.807834
18.742580,0.126897,-3.623155,-9.037386
18.777279,0.238381,-3.668347,-9.401767
18.809282,0.281628,-3.582303,-9.420472
18.842697,0.004190,-3.508379,-8.945356
18.876019,0.004789,-3.403180,-8.981270
18.909169,0.029031,-3.510773,-9.026463
18.942727,0.176878,-3.498652,-9.440674
18.975968,-0.018705,-3.596818,-9.031700
19.009347,0.028133,-3.582303,-9.181792
19.042869,0.091282,-3.572725,-9.271877
19.075736,-0.013019,-3.405275,-9.313627
19.109629,-0.093228,-3.527384,-8.979924
19.142771,-0.112831,-3.654131,-8.953886
19.175989,-0.078114,-3.462738,-9.259457
19.209488,-0.052674,-3.276133,-9.285794
19.242623,-0.215187,-3.269249,-8.727775
19.275993,-0.131237,-3.415451,-8.325385
19.309596,0.268310,-3.797639,-9.095598
19.345485,0.253346,-3.675680,-9.246288
19.375967,-0.006135,-3.654430,-8.651607
19.409681,-0.084099,-3.639765,-8.948798
19.442699,0.008679,-3.642160,-9.146177
19.475992,0.084249,-3.823677,-9.307941
19.509598,-0.108940,-3.716233,-9.090061
19.542756,-0.146052,-3.728204,-8.985311
19.576034,-0.199025,-3.522595,-8.923658
19.609640,-0.093976,-3.757085,-8.721939
19.642677,-0.028432,-3.840437,-9.256613
19.675996,-0.032473,-3.976612,-9.349841
19.709349,-0.087242,-3.852109,-9.570415
19.742365,-0.178823,-3.572576,-9.246138
19.776201,-0.184061,-3.589485,-8.978577
19.809656,-0.176429,-3.759330,-8.830281
19.842905,-0.096819,-3.751998,-9.116248
19.875992,-0.137672,-3.696929,-9.312730
19.909373,-0.259930,-3.457800,-9.249431
19.943021,-0.313502,-3.295287,-9.130464
19.975691,-0.088888,-3.438945,-8.929644
20.009367,0.091581,-3.666252,-8.867991
20.043097,0.085147,-3.790456,-8.949396
20.075727,0.039805,-3.744815,-9.392040
20.109323,-0.254393,-3.402731,-9.311532
20.143135,-0.314400,-3.424579,-8.850782
20.175788,-0.217730,-3.522745,-8.735108
20.209460,0.022297,-3.696929,-9.313328
20.243113,0.108790,-3.723117,-9.575353
20.275730,-0.058361,-3.610884,-9.340563
20.309468,-0.147099,-3.673136,-9.097693
20.343252,-0.089935,-3.754392,-9.082728
20.375814,-0.183163,-3.472165,-9.279658
20.409350,-0.237483,-3.553571,-9.120139
20.443021,-0.208153,-3.701867,-8.976482
20.481152,-0.014216,-3.680169,-9.447558
20.509301,-0.045491,-3.606096,-9.431247
20.542998,-0.336697,-3.403030,-8.772219
20.575980,-0.228954,-3.527533,-8.579778
20.609325,-0.048185,-3.527384,-8.943560
20.642985,-0.027834,-3.472315,-9.273224
20.676593,-0.084548,-3.479498,-9.120887
20.709449,-0.130040,-3.541749,-8.887145
20.742821,-0.127496,-3.687651,-8.707873
20.776133,-0.102655,-3.548782,-9.209476
20.809460,-0.374107,-3.226003,-9.052201
20.842733,-0.353756,-3.604001,-8.542966
20.876220,-0.039506,-3.747209,-9.328442
20.909343,-0.051776,-3.424130,-9.713174
20.943675,-0.236286,-3.622706,-9.244492
20.976120,-0.369020,-3.689746,-8.908843
21.009378,-0.144555,-3.701718,-9.339067
21.042937,-0.266813,-3.555666,-9.500531
21.076158,-0.458955,-3.488776,-9.179847
21.109323,-0.490230,-3.378938,-8.924406
21.143193,-0.429176,-3.697079,-8.651457
21.176263,-0.361687,-3.751848,-9.143034
21.209405,-0.398948,-3.625100,-9.229528
21.242793,-0.622215,-3.395548,-8.885200
21.275956,-0.735944,-3.527234,-8.537579
21.310068,-0.856107,-3.388515,-8.462309
21.342763,-0.826179,-3.464982,-8.579180
21.376284,-0.875112,-3.842532,-8.744685
21.409888,-0.734747,-3.758732,-9.111310
21.442892,-0.712151,-3.579459,-9.194661
21.476257,-0.837402,-3.637072,-8.670163
21.509743,-0.767219,-3.658620,-8.760248
21.551659,-0.714395,-3.541151,-9.209027
21.575992,-0.745072,-3.715784,-9.044420
21.610435,-0.493822,-3.875752,-9.534201
21.642623,-0.662020,-3.603103,-9.636258
21.675986,-0.852516,-3.663259,-8.821003
21.710122,-0.691350,-3.715934,-8.929195
21.742623,-0.571187,-3.663259,-9.202742
21.775991,-0.310210,-3.765914,-9.493947
21.809729,-0.184510,-3.849714,-9.626381
21.842635,-0.287015,-3.639316,-9.407603
21.876222,-0.446834,-3.395997,-8.529648
21.909727,-0.523601,-3.398541,-8.272262
21.942663,-0.457309,-3.484436,-8.453180
21.976227,-0.344179,-3.452861,-9.408052
22.009593,-0.422442,-3.534267,-9.024218
22.042834,-0.470926,-3.505835,-8.747378
22.076250,-0.349566,-3.417695,-8.246524
22.109701,-0.106995,-3.585146,-8.372972
22.142853,-0.150242,-3.551476,-8.571847
22.176331,-0.254393,-3.735387,-8.905252
22.209716,-0.398499,-3.500747,-9.253321
22.243327,-0.414511,-3.352451,-9.303601
22.276244,-0.421544,-3.555965,-8.890287
22.309796,-0.295844,-3.723266,-9.046814
22.343140,-0.177776,-3.639316,-9.573707
22.376320,-0.237184,-3.720722,-9.383062
22.409883,-0.198127,-3.749304,-9.471201
22.443540,-0.223118,-3.978856,-9.387850
22.475885,-0.168049,-3.696330,-10.259520
22.509739,-0.212942,-3.693786,-10.303067
22.543116,-0.424537,-3.933514,-9.098441
22.576387,-0.281029,-3.945785,-8.678543
22.609819,-0.455812,-3.558360,-8.818908
22.652598,-0.424088,-3.331052,-9.081531
22.675992,-0.495468,-3.343023,-9.110861
22.709898,-0.421694,-3.230791,-8.837613
22.742753,-0.249904,-3.506134,-8.407988
22.776390,-0.243918,-3.422334,-8.733013
22.809919,-0.465090,-3.338534,-8.601477
22.843152,-0.624310,-3.206848,-8.667768
22.876410,-0.699281,-3.429367,-8.391378
22.909755,-0.298837,-3.744665,-9.214115
22.943449,-0.292552,-3.634378,-9.778119
22.976424,-0.295395,-3.789857,-9.531956
23.009818,-0.401193,-3.524540,-9.442171
23.043231,-0.504596,-3.684958,-8.963014
23.075819,-0.314549,-3.715784,-9.524923
23.109360,-0.335499,-3.579310,-9.776174
23.142979,-0.462696,-4.000106,-9.553056
23.176341,-0.416905,-3.521697,-9.984926
23.209810,-0.370516,-3.732544,-9.432444
23.242828,-0.225362,-3.816045,-9.830045
23.276666,-0.184959,-3.593675,-9.999142
23.309404,-0.350164,-3.156269,-9.706889
23.343192,-0.683569,-3.257128,-8.496278
23.376650,-0.642268,-3.168689,-8.553142
23.409539,-0.430223,-3.101799,-8.701438
23.442735,-0.278486,-3.453460,-8.410682
23.476450,-0.154880,-3.783572,-8.397513
23.509443,-0.022297,-3.623005,-9.141688
23.542790,-0.169695,-3.354995,-9.398924
23.576737,-0.579717,-3.178117,-8.803495
23.609445,-0.813758,-3.094766,-8.151051
23.642962,-0.796250,-3.314591,-8.244129
23.676593,-0.452520,-3.565243,-9.349542
23.715779,-0.316644,-3.124844,-10.148635
23.742751,-0.522104,-3.098956,-9.264096
23.776632,-0.511330,-3.465431,-8.317604
23.810015,-0.184959,-3.842981,-8.933235
23.843180,0.018406,-3.507481,-10.257425
23.876719,-0.369020,-3.005130,-10.369059
23.910333,-0.570738,-3.381182,-9.001771
23.943212,-0.387276,-3.448522,-8.739298
23.976491,-0.179721,-3.166445,-8.899416
24.008345,-0.098764,-3.372054,-8.896273
24.043237,0.008380,-3.591580,-9.557246
24.076160,-0.115824,-3.318781,-9.962479
24.110415,-0.535871,-2.762110,-9.056241
24.142965,-0.493971,-2.994505,-8.317155
24.176157,-0.336248,-3.087583,-8.556883
24.210585,-0.068836,-3.099405,-9.199450
24.243021,0.056116,-2.797725,-10.132474
24.276590,-0.211296,-2.687887,-9.461325
24.310744,-0.444739,-2.707490,-8.416967
24.342952,-0.184210,-2.791290,-8.658042
24.376545,-0.043696,-2.984928,-8.859611
24.410565,-0.118218,-3.149385,-9.501130
24.442977,0.052525,-3.062742,-10.488773
24.476589,-0.198427,-3.050621,-10.467674
24.510232,-0.606353,-2.560690,-9.807449
24.542064,-0.680576,-2.522830,-9.131811
24.576643,-0.324725,-2.917738,-8.944009
24.610097,-0.121061,-3.158963,-9.460577
24.643255,-0.010625,-3.220915,-9.949311
24.676767,-0.056565,-3.292294,-10.360978
24.709670,-0.376053,-3.239770,-9.970111
24.742855,-0.400445,-3.122599,-9.910553
24.776665,-0.643016,-2.613514,-9.525821
24.814630,-0.698384,-2.810295,-8.178436
24.843126,-0.452071,-3.281520,-8.025202
24.876749,-0.191842,-3.549231,-8.476674
24.909810,-0.055817,-3.515113,-9.562783
24.943099,-0.151738,-3.414553,-9.745347
24.976695,-0.392513,-3.154024,-9.324851
25.009741,-0.670700,-3.152229,-8.123218
25.043456,-0.467335,-3.372204,-8.178436
25.077525,-0.174783,-3.577813,-8.521867
25.110291,0.106396,-3.998160,-9.386653
25.143203,0.220274,-4.206014,-9.775126
25.176269,-0.052525,-4.043502,-9.488859
25.210824,-1.231561,-3.319380,-7.766020
25.243242,-0.749711,-3.936208,-8.193700
25.276687,-0.220723,-4.157979,-9.626980
25.310597,0.030976,-3.981101,-9.927612
25.343103,-0.288063,-3.639616,-9.099189
25.377101,-0.475865,-3.690345,-7.867927
25.410444,-0.060456,-3.692589,-8.711913
25.443114,0.088888,-3.175573,-9.881373
25.476250,-0.105199,-2.907562,-10.012460
25.510522,0.021998,-3.718178,-9.941978
25.543133,0.158771,-3.424280,-9.754027
25.576375,0.139018,-3.223908,-9.008356
25.610876,-0.024841,-3.353349,-8.438964
25.643173,-0.111933,-3.472614,-8.573793
25.676437,0.054021,-2.998545,-9.958140
25.710387,0.041152,-2.778720,-9.850696
25.743288,0.122109,-2.987173,-9.182989
25.776807,0.242272,-3.231390,-8.612849
25.810533,0.644213,-3.752596,-8.945655
25.843972,0.353457,-3.462887,-9.419575
25.876471,-0.168947,-3.295437,-9.018980
25.911223,-0.017359,-3.390760,-9.574156
25.947242,0.146949,-2.857582,-9.911601
25.976254,0.213840,-3.106887,-9.055344
26.010499,0.374407,-3.623604,-8.506304
26.043161,0.565800,-3.542198,-8.960769
26.076755,0.323079,-3.288553,-9.025565
26.110426,0.220125,-3.745114,-9.048310
26.143184,0.027385,-3.170934,-9.499484
26.176980,-0.419449,-2.783957,-8.567358
26.210423,-0.246761,-3.680917,-8.061415
26.243211,0.269058,-3.862135,-9.396829
26.276755,0.084997,-3.312197,-9.319763
26.310387,-0.007931,-3.838342,-8.725680
26.343577,0.174484,-3.596668,-9.452646
26.377073,-0.207255,-2.867458,-9.188825
26.410434,-0.225961,-3.656825,-8.426843
26.443129,0.075121,-4.129846,-9.159944
26.476855,0.059857,-3.598763,-9.683395
26.509898,-0.115674,-3.850014,-9.154707
26.543146,-0.239429,-3.799883,-8.971993
26.577383,-0.653790,-3.204604,-8.591600
26.610129,-0.468083,-3.584996,-8.345886
26.643618,-0.183911,-4.065350,-8.835369
26.676860,-0.411368,-3.607742,-10.061393
26.710367,-0.646906,-3.325665,-9.901275
26.743642,-0.838300,-3.479049,-9.014341
26.776339,-0.828573,-3.467526,-8.359354
26.810001,-0.575676,-3.649193,-8.569303
26.843544,-0.540660,-3.718029,-9.386503
26.876631,-0.757343,-3.010068,-9.821216
26.909892,-0.745072,-3.113471,-8.755010
26.944012,-0.442494,-3.400935,-8.259393
26.975817,-0.107593,-3.426973,-8.972890
27.009899,0.063598,-3.460194,-9.563830
27.043933,-0.091581,-3.419341,-9.785302
27.084413,-0.081855,-3.419491,-9.584481
27.109875,-0.053871,-3.309653,-9.278162
27.142380,-0.041750,-3.470070,-8.878915
27.175958,0.011523,-3.462738,-9.169970
27.209383,0.039206,-3.304864,-9.501878
27.242596,-0.048484,-3.333596,-9.335475
27.276004,0.012271,-3.374299,-9.234466
27.309349,-0.023494,-3.185300,-9.421221
27.342967,-0.243020,-3.388814,-8.809480
27.376016,-0.247061,-3.304864,-9.089013
27.409305,-0.407478,-3.132775,-9.040529
27.442632,-0.340737,-2.950809,-9.455639
27.475329,-0.588695,-2.577899,-9.235963
27.509190,-0.448779,-2.907862,-9.181942
27.542724,-0.245863,-2.907562,-9.899031
27.575975,-0.236885,-2.888408,-9.992258
27.608851,-0.444739,-2.666188,-9.528365
27.642815,-0.417354,-2.747744,-9.191070
27.675784,-0.316345,-2.704497,-9.694319
27.709298,-0.494271,-2.685343,-9.586277
27.741761,-0.797148,-2.632519,-9.407902
27.775384,-0.818697,-2.486766,-9.384259
27.809322,-0.874214,-2.374684,-8.885200
27.842495,-0.614284,-2.573410,-8.633949
27.876011,-0.452371,-2.671276,-9.043223
27.909380,-0.706315,-2.836033,-9.000724
27.942737,-0.810317,-3.072469,-9.341311
27.975980,-0.771260,-2.931056,-10.062740
28.009350,-0.886036,-2.459831,-10.228694
28.042667,-0.813160,-2.209328,-9.644638
28.075239,-0.826628,-2.367651,-8.650410
28.108724,-0.543204,-2.783957,-8.389433
28.142671,0.015563,-3.051369,-9.497239
28.180848,-0.064047,-2.847855,-10.059747
28.210122,-0.160866,-2.843066,-9.938836
28.243111,-0.293151,-2.957693,-9.871047
28.277006,-0.407029,-2.718414,-10.142350
28.310177,-0.515969,-2.615759,-9.777820
28.343373,-0.494121,-2.728589,-9.158448
28.377353,-0.475416,-2.757620,-8.689766
28.410109,-0.189747,-2.893795,-9.042923
28.444040,0.026038,-2.587626,-9.540037
28.475955,0.027235,-2.673970,-9.219652
28.510954,-0.155329,-2.783957,-8.906299
28.542510,-0.172239,-2.731283,-9.092904
28.577220,-0.268459,-2.484971,-9.017334
28.608532,-0.310210,-2.626383,-8.484755
28.642392,-0.001945,-2.836332,-9.392190
28.675997,0.067639,-2.979690,-9.661547
28.708850,-0.134828,-3.139659,-9.735620
28.742720,-0.452969,-2.728290,-9.652868
28.776030,-0.522404,-2.709286,-9.414487
28.809326,-0.361238,-2.905318,-9.532405
28.842788,-0.292253,-3.194578,-9.538840
28.875995,-0.156078,-3.012612,-10.175571
28.909434,-0.520608,-2.783359,-9.371539
28.942797,-0.588845,-3.092222,-8.617039
28.975610,-0.351811,-3.228247,-9.343556
29.009350,-0.379495,-3.117811,-9.857729
29.042776,-0.517166,-3.019795,-9.718112
29.075515,-0.474368,-3.048825,-9.256464
29.109763,-0.497114,-3.386570,-8.293511
29.142654,-0.260229,-3.668646,-8.573044
29.176116,-0.410770,-3.228247,-9.188825
29.208762,-0.602911,-2.991363,-9.291181
29.244627,-0.596477,-3.151780,-9.028258
29.276598,-0.563256,-3.324168,-8.585764
29.309917,-0.232246,-3.608640,-8.945655
29.343495,-0.252148,-3.524690,-9.309138
29.377001,-0.451024,-3.335541,-9.679355
29.410091,-0.847428,-3.113172,-9.226984
29.444230,-0.839946,-3.127837,-8.818160
29.476916,-0.656184,-3.288104,-8.823397
29.510577,-0.333105,-3.404976,-9.544227
29.544050,-0.395656,-3.321325,-9.489907
29.575603,-0.415110,-3.441040,-9.033645
29.610928,-0.477511,-3.316686,-9.220699
29.643987,-0.556073,-3.177818,-9.443817
29.677124,-0.631493,-3.206549,-9.327544
29.708760,-0.629099,-3.144447,-9.102780
29.742594,-0.512826,-3.321624,-8.817112
29.776174,-0.214887,-3.383726,-9.203490
29.809463,-0.220125,-3.256979,-9.368397
29.843105,-0.349267,-3.422035,-8.934881
29.875990,-0.398050,-3.388515,-9.059683
29.909454,-0.401342,-3.436101,-9.415833
29.943085,-0.277139,-3.682264,-9.670376
29.975833,-0.440698,-3.332997,-9.753278
30.009469,-0.476313,-3.290499,-8.881309
30.042745,-0.186904,-3.694834,-8.739597
30.075346,-0.095023,-3.553571,-9.259606
30.109478,-0.229103,-3.484286,-9.010002
30.142017,-0.134080,-3.814249,-8.992494
30.176052,-0.132135,-3.531873,-9.353283
30.209462,-0.354205,-3.235430,-9.116548
30.242202,-0.412117,-3.589635,-8.447943
30.276105,-0.109389,-3.754392,-9.054296
30.309476,0.038009,-3.476804,-9.631020
30.354869,-0.164009,-3.424579,-9.052351
30.376091,-0.303775,-3.379387,-8.499270
30.409406,-0.098764,-3.833703,-8.502114
30.442735,0.061803,-3.725511,-9.650025
30.476128,-0.241823,-3.354696,-9.806102
30.509632,-0.593035,-3.500897,-8.717600
30.542732,-0.489632,-3.603851,-8.575588
30.576142,-0.223866,-3.596519,-9.062676
30.609581,-0.323977,-3.378788,-9.273972
30.642790,-0.170593,-3.723266,-9.133757
30.676304,-0.204562,-3.421885,-9.275169
30.709199,-0.372761,-3.345717,-8.741542
30.742157,-0.314849,-3.393453,-8.800651
30.776433,-0.302129,-3.476954,-9.099339
30.809135,-0.334452,-3.273439,-9.620695
30.842798,-0.640472,-3.331052,-8.954784
30.875150,-0.423340,-3.385821,-9.368247
30.909403,-0.235239,-3.323869,-9.308839
30.942755,-0.267113,-3.276283,-8.996085
30.976340,-0.046240,-3.121103,-8.857366
31.009526,-0.084997,-2.970562,-8.797958
31.042659,-0.315896,-3.096711,-9.331136
31.076016,0.230300,-3.489374,-9.074348
31.109455,0.022895,-3.376543,-9.547519
31.142869,-0.363782,-3.237824,-9.123730
31.176210,-0.556971,-3.118409,-8.913183
31.209255,-0.337894,-2.991363,-9.501130
31.242685,-0.498610,-3.087433,-8.788231
31.275716,-0.355851,-3.785518,-8.808433
31.309177,-0.221322,-3.742121,-9.538391
31.342686,-0.162063,-3.373551,-10.331050
31.376732,-0.603660,-3.376244,-9.269932
31.409340,-0.679978,-3.271045,-9.273074
31.442642,-0.683270,-3.158663,-9.170269
31.476022,-0.326671,-3.369211,-9.474793
31.509324,-0.510282,-3.658620,-8.879364
31.542657,-0.354205,-4.086749,-8.765485
31.575993,-0.194685,-3.593975,-9.549914
31.609357,-0.419599,-3.089379,-9.458931
31.642613,-0.775150,-3.271344,-8.640683
31.675958,-0.657082,-3.412607,-8.534287
31.709356,-0.117919,-3.618067,-9.140341
31.742630,0.043995,-3.598763,-9.752829
31.775965,-0.342233,-2.912800,-9.087517
31.809357,-0.672795,-3.059151,-7.922397
31.842652,-0.291654,-3.472614,-8.520819
31.876244,0.064945,-3.565542,-9.267388
31.909329,-0.205909,-3.175872,-9.126873
31.942656,-0.234191,-3.025331,-8.921563
31.976041,-0.119265,-3.123348,-8.956130
32.008892,0.085895,-3.417246,-9.417779
32.041975,0.157125,-3.338235,-9.804157
32.075994,0.147548,-2.883919,-9.978641
32.109359,0.048484,-2.989567,-9.006859
32.141766,0.259182,-3.587540,-8.882955
32.175147,0.372012,-2.936593,-9.968914
32.209281,0.125850,-2.745350,-9.723050
32.242616,-0.089337,-3.199965,-8.864998
32.275957,0.146800,-2.977595,-9.256763
32.309293,0.325922,-2.901128,-9.467460
32.342634,0.119714,-3.661314,-9.037386
32.375990,-0.051028,-3.244558,-10.203105
32.409179,-0.136325,-2.192568,-10.375793
32.443285,-0.550985,-2.638355,-8.264331
32.475961,-0.361986,-3.482491,-7.993328
32.509295,0.250203,-3.512868,-9.597650
32.542671,0.169994,-2.830796,-10.716829
32.576052,-0.713647,-2.534503,-9.607825
32.609366,-0.970135,-2.372290,-8.852877
32.642704,-0.570140,-2.690580,-8.755310
32.675987,-0.299436,-2.829000,-9.273523
32.709374,-0.246013,-2.778720,-9.571761
32.742768,-0.605156,-2.714074,-9.276815
32.776038,-0.860896,-2.611269,-9.035740
32.808490,-0.953674,-2.453396,-9.062975
32.842435,-0.691650,-2.001325,-9.820019
32.876034,-0.619073,-2.505921,-9.511156
32.909240,-0.510432,-2.986574,-9.443218
32.942654,-0.460900,-2.761960,-9.366152
32.975998,-0.628351,-2.470306,-9.092904
33.009284,-0.850571,-2.604386,-8.662830
33.042733,-0.735495,-3.053614,-8.977230
33.075952,-0.576574,-3.545640,-9.802661
33.109268,-0.600368,-3.631236,-10.476952
33.142609,-0.897259,-2.789494,-10.554018
33.175968,-1.089999,-2.146778,-9.886610
33.209351,-0.977767,-2.319615,-8.797958
33.242621,-0.432618,-3.448821,-8.084909
33.275930,0.130189,-3.627944,-9.113704
33.309264,0.302877,-3.347662,-10.032063
33.342209,0.039955,-3.108533,-9.996598
33.375949,-0.794454,-2.948565,-8.815316
33.409273,-0.694044,-3.005878,-8.826091
33.442596,-0.295545,-3.072619,-9.658405
33.475945,-0.329963,-3.029671,-9.572659
33.509285,-0.304523,-2.927016,-9.261701
33.542613,-0.320086,-3.123647,-8.286628
33.575953,-0.162063,-3.214630,-8.323290
33.609356,-0.163560,-2.934648,-8.815616
33.642628,-0.105349,-2.946470,-9.120887
33.675958,-0.117470,-2.764504,-9.532106
33.709273,-0.194386,-2.671276,-9.255566
33.742605,-0.020052,-2.841271,-9.040978
33.775933,-0.081406,-2.865214,-8.895824
33.809277,0.080957,-3.128136,-9.154707
33.842616,0.039955,-2.723651,-9.958140
33.875935,-0.249604,-2.687887,-9.454591
33.909376,-0.224614,-2.998845,-9.141239
33.941806,0.073325,-2.936593,-9.749986
33.976038,0.072876,-2.848005,-9.922076
34.009378,0.062401,-3.017700,-9.850546
34.042392,-0.115674,-2.905467,-9.489009
34.076035,-0.153384,-3.065735,-9.338917
34.108636,0.152486,-3.084740,-9.796974
34.142712,0.108940,-2.900679,-9.938387
34.175989,-0.131686,-3.173328,-9.362710
34.209316,-0.021698,-2.984629,-9.349392
34.242651,0.151888,-2.989567,-9.280556
34.276047,0.140365,-3.130680,-9.113405
34.309211,0.074672,-3.133074,-9.006560
34.342762,-0.218329,-2.900978,-9.057588
34.375994,-0.487836,-3.063640,-8.458268
34.409407,-0.259182,-3.386270,-8.943111
34.442709,-0.206507,-3.235281,-9.518788
34.475116,-0.219077,-3.031916,-9.877482
34.509371,-0.498311,-2.603937,-9.646134
34.542707,-0.384133,-3.056457,-8.767730
34.575058,-0.057912,-3.580208,-8.719096
34.609365,0.324875,-3.721022,-9.455938
34.642703,0.136774,-3.156419,-9.897534
34.675160,-0.462696,-3.096861,-9.014940
34.709376,-0.472722,-3.481742,-9.015090
34.749702,-0.323079,-3.237525,-9.785452
34.775966,-0.234341,-3.160908,-10.023534
34.809317,-0.322929,-3.335841,-9.154407
34.842655,-0.497413,-3.283615,-8.470389
34.875233,-0.463145,-3.369660,-8.555985
34.909495,-0.335499,-3.230642,-9.297915
34.942515,-0.508936,-2.965025,-9.366751
34.976095,-0.545598,-3.173478,-8.654899
35.009385,-0.306319,-3.362477,-8.700091
35.042040,-0.199175,-3.340629,-9.325150
35.076034,-0.361088,-3.175573,-9.355527
35.109375,-0.503848,-3.087134,-9.182690
35.141902,-0.473919,-3.032365,-8.852428
35.176037,-0.259481,-3.288404,-8.599232
35.209387,-0.276540,-3.125742,-8.783442
35.241917,0.029180,-3.178416,-9.011947
35.276034,0.125401,-3.166445,-9.288188
35.309377,0.105798,-3.386270,-9.264544
35.341842,0.060456,-3.266406,-9.704794
35.376035,-0.006435,-3.247252,-9.688782
35.408531,-0.043696,-3.398242,-9.127472
35.441733,-0.055368,-3.407669,-9.371539
35.476042,-0.002245,-3.158813,-9.844112
35.509105,-0.038009,-3.433857,-9.433491
35.542660,-0.114626,-3.594124,-9.219203
35.576044,0.058810,-3.642160,-9.150367
35.609227,0.098465,-3.543994,-9.482125
35.642364,0.015114,-3.304715,-9.702849
35.675995,0.027235,-3.273739,-9.494845
35.708944,0.001048,-3.276582,-8.844946
35.742743,0.242571,-3.802727,-8.699044
35.775117,0.425136,-3.510773,-9.426009
35.809295,0.159669,-3.257428,-8.931589
35.841950,0.180020,-3.449120,-8.410383
35.876039,0.309761,-3.417995,-8.468743
35.909367,0.438304,-3.190687,-9.062377
35.942627,0.266963,-3.276732,-8.913781
35.976024,0.200522,-3.278976,-8.952689
36.009446,0.146351,-3.204903,-8.802746
36.042659,0.226260,-3.396296,-8.696799
36.075973,0.289409,-3.365021,-9.006710
36.109382,0.142460,-3.362327,-9.335775
36.142551,-0.058361,-3.261917,-9.297316
36.175815,-0.112831,-3.142502,-9.111460
36.209447,-0.001347,-3.458249,-8.847490
36.242470,0.159968,-3.529778,-9.201844
36.275086,0.130489,-3.469771,-9.570265
36.309446,-0.097418,-3.261767,-9.453095
36.342387,-0.211146,-3.321624,-9.103080
36.376037,-0.064047,-3.532172,-9.029755
36.409380,0.164607,-3.881289,-9.237758
36.441885,0.075270,-3.737482,-9.578046
36.476035,-0.191393,-3.620312,-9.415983
36.509442,-0.316644,-3.718478,-9.109065
36.542413,-0.291804,-3.565542,-8.958225
36.576036,-0.190795,-3.565692,-8.796910
36.609495,0.032772,-3.828764,-8.969149
36.642031,0.100560,-3.689746,-9.477486
36.676035,0.124802,-3.622856,-9.500980
36.709198,-0.038458,-3.386270,-9.172813
36.742205,-0.191693,-3.276582,-8.689317
36.776033,-0.051028,-3.632882,-8.482361
36.809479,0.183612,-3.886227,-9.005662
36.842653,0.116721,-3.551027,-9.632516
36.876042,-0.134529,-3.278677,-9.104576
36.918248,-0.178374,-3.532621,-8.177688
36.942859,0.021100,-3.807515,-8.333466
36.975974,0.394459,-3.776090,-9.481377
37.009320,0.281029,-3.744815,-9.597350
37.042700,0.309013,-3.800033,-9.317368
37.075966,0.713348,-4.266769,-8.760996
37.109439,0.813309,-4.355358,-8.728972
37.142652,0.700778,-3.965538,-8.894926
37.176281,0.334153,-3.908075,-8.561821
37.209324,0.268459,-4.369125,-8.954784
37.242699,0.287165,-4.419106,-9.360915
37.276043,0.381590,-4.380947,-9.254668
37.309067,0.256787,-4.333510,-8.524710
37.342704,0.168348,-4.030034,-8.269718
37.376026,0.162213,-3.850463,-8.783592
37.408975,0.246163,-4.015369,-8.837763
37.442392,0.591688,-4.261831,-8.783891
37.475341,0.694493,-4.410127,-8.794815
37.509269,0.812561,-4.519965,-9.118643
37.542750,0.500705,-4.137179,-9.403862
37.575970,0.049083,-3.730599,-9.143334
37.609280,0.017808,-3.697528,-8.460064
37.642657,0.304823,-4.080314,-8.301742
37.675978,0.599619,-4.063255,-9.046664
37.709287,0.730258,-4.118174,-9.430050
37.742707,0.466736,-3.821731,-9.112507
37.775954,0.393860,-3.817392,-8.336459
37.809263,0.314549,-3.865427,-7.852214
37.842594,0.437556,-3.747957,-8.603721
37.875951,0.655735,-3.886377,-9.141538
37.909286,0.676386,-4.044250,-9.076892
37.942466,0.871072,-4.481806,-9.012845
37.975935,1.000363,-4.398006,-9.470304
38.009254,0.577771,-4.245071,-8.817561
38.042615,0.504446,-4.008486,-8.631854
38.075935,0.192142,-4.173542,-8.274357
38.109267,0.555774,-4.821346,-8.612401
38.142598,0.397751,-4.234746,-9.835283
38.175951,0.638676,-4.106053,-9.572061
38.209270,0.452371,-4.053827,-8.687372
38.242011,0.542456,-4.224271,-7.758987
38.275937,0.549938,-4.441702,-7.811661
38.309269,0.524798,-4.015968,-8.313713
38.342600,0.667707,-3.936807,-8.923957
38.376034,0.721578,-4.173392,-9.076443
38.409267,0.991833,-4.264076,-9.549165
38.442085,1.027149,-4.178031,-9.481826
38.475963,1.249070,-4.546602,-9.056541
38.509269,1.107657,-4.247914,-8.761595
38.542596,0.754350,-4.185962,-8.131897
38.575927,0.541259,-3.937106,-8.277649
38.609267,0.457010,-3.700221,-8.412328
38.642601,0.528090,-3.872311,-8.602823
38.675941,0.803283,-4.120867,-8.886696
38.709264,0.776048,-3.812154,-9.424662
38.742601,0.855209,-3.831009,-9.892297
38.775694,0.637928,-3.501046,-9.875387
38.809279,0.619522,-3.970177,-8.895824
38.842099,0.825131,-3.865128,-8.888791
38.875933,0.822138,-3.716981,-8.817112
38.909276,0.966993,-4.412671,-8.806188
38.942628,0.846381,-3.914809,-9.758665
38.975955,0.684616,-3.941446,-9.160393
39.008355,0.683868,-3.673734,-9.067165
39.042466,0.889178,-4.336503,-8.238144
39.075932,1.068900,-4.144810,-9.144381
39.109356,0.699730,-3.714437,-8.980971
39.142760,0.393112,-3.980203,-8.061714
39.175914,0.573581,-4.116378,-8.193700
39.209403,0.773355,-4.209456,-8.781946
39.242618,0.669802,-3.974666,-9.555001
39.276030,0.298089,-3.742720,-9.190920
39.309279,0.221920,-3.743019,-8.548653
39.342610,0.563555,-4.326776,-8.172301
39.375938,0.738488,-4.278591,-9.105025
39.409357,0.422143,-3.895655,-9.409399
39.442204,0.291804,-4.142117,-8.868440
39.476044,0.168498,-3.836097,-8.711913
39.509394,0.411368,-4.419704,-8.465601
39.542118,0.528090,-4.407284,-9.327245
39.576046,0.203365,-4.149000,-9.318715
39.609090,0.046240,-3.926481,-9.341910
39.642697,-0.150092,-4.025096,-8.201481
39.676052,0.240476,-4.230705,-8.560624
39.709099,0.141712,-3.762024,-8.654749
39.742699,0.151888,-4.034823,-8.293811
39.776055,0.310659,-4.551241,-8.232607
39.809055,0.423490,-4.294753,-9.579244
39.842700,0.203065,-3.895206,-9.923422
39.876056,-0.156975,-3.780879,-8.854074
39.908968,0.250652,-4.333660,-8.409934
39.942704,0.474218,-4.472379,-8.546258
39.976044,0.755996,-4.287719,-9.613961
40.008956,0.197080,-3.689746,-9.557695
40.042761,0.176878,-4.046495,-8.618686
40.075677,0.462247,-4.216489,-8.508099
40.108794,0.717688,-3.824275,-9.112208
40.142711,0.649600,-3.984692,-8.797509
40.175629,0.776797,-4.371968,-8.891934
40.209431,0.879901,-4.254499,-9.361513
40.249309,0.579268,-3.776090,-9.560688
40.276019,0.516119,-3.685406,-9.243445
40.309321,0.679678,-3.982298,-8.703982
40.342659,0.906687,-3.929773,-8.933385
40.375998,0.981209,-3.922591,-8.963613
40.409294,0.726816,-3.614027,-9.045168
40.442656,0.671747,-3.540103,-8.586812
40.476066,0.791910,-3.573773,-8.434924
40.509429,0.930929,-3.640663,-8.701139
40.542654,0.937663,-3.877099,-8.913781
40.576049,0.801188,-3.886377,-9.331285
40.608764,0.504446,-3.596668,-9.697611
40.642654,0.141263,-3.453460,-9.022721
40.676046,0.138869,-3.668946,-8.375067
40.709375,0.339390,-3.843280,-8.822350
40.742658,0.310060,-3.912415,-9.207531
40.776005,0.174933,-3.897750,-9.531657
40.809358,-0.005537,-3.701867,-9.155904
40.842658,-0.127496,-3.687651,-8.698296
40.876002,-0.126448,-3.833703,-8.378060
40.909356,0.036513,-4.029885,-8.455275
40.942719,0.046689,-4.106202,-8.739597
40.976018,-0.034867,-4.139274,-9.139593
41.009321,-0.266215,-3.730449,-9.134804
41.042707,-0.377998,-3.603701,-8.944758
41.075656,-0.594681,-3.560904,-8.349628
41.109322,-0.392513,-3.752297,-8.290070
41.142713,-0.131536,-3.931569,-8.571698
41.175670,-0.010924,-3.811705,-9.325748
41.209326,-0.094425,-3.252190,-9.503225
41.242705,-0.158771,-3.384175,-8.643526
41.275478,0.040703,-3.807365,-8.596089
41.309379,0.219227,-4.163516,-9.010151
41.342104,-0.061803,-3.550728,-9.894990
41.376095,-0.363034,-3.574970,-9.002071
41.409331,-0.127197,-3.584697,-9.162039
41.442704,0.114028,-3.697079,-9.178500
41.476037,0.314998,-3.474709,-9.616056
41.509087,0.147698,-3.927080,-8.566310
41.541740,0.403437,-4.230556,-9.036938
41.576159,0.385929,-3.335841,-9.980885
41.609029,0.044145,-3.250095,-9.071505
41.642708,0.200522,-3.716682,-8.558529
41.676053,0.474518,-3.824275,-8.945206
41.708923,0.762880,-3.757085,-9.522828
41.742700,0.543204,-3.675979,-9.092605
41.775500,0.415858,-3.822180,-8.386440
41.808530,0.563855,-3.781328,-8.807984
41.841731,0.599320,-3.709349,-9.199450
41.876128,0.282825,-3.599362,-9.090510
41.908884,0.286267,-3.771601,-8.767880
41.942662,0.508786,-3.907926,-9.033196
41.976035,0.514323,-3.857496,-9.308091
42.009339,0.381739,-3.788211,-9.197205
42.042660,0.319039,-3.797639,-9.150068
42.076038,0.240027,-4.089592,-8.715953
42.109316,0.406131,-4.110692,-9.493349
42.142781,0.068985,-3.551027,-9.640298
42.175688,-0.062850,-3.828615,-8.948648
42.209320,0.181517,-3.962695,-9.039182
42.242713,0.246163,-3.993821,-8.835369
42.275548,0.189598,-3.876650,-8.888492
42.309321,-0.034568,-4.008186,-8.709369
42.342730,0.065993,-3.981550,-9.186281
42.375089,-0.091581,-3.507930,-9.567871
42.409384,-0.298538,-3.546538,-8.778953
42.442804,-0.181667,-3.683162,-8.337955
42.480573,0.157125,-3.898348,-8.547156
42.509308,0.325024,-3.836097,-9.044719
42.542657,-0.062700,-3.467676,-8.924556
42.576071,-0.074522,-3.594723,-8.506453
42.609367,0.111035,-3.680917,-8.463805
42.642508,0.371563,-4.032279,-8.721640
42.676123,0.343431,-3.885928,-9.646882
42.709327,0.068536,-3.503291,-9.590018
42.742680,-0.192890,-3.474859,-8.823247
42.776047,0.037411,-3.950873,-8.534137
42.809342,0.389820,-4.108447,-9.319015
42.842924,0.284621,-3.847320,-9.946318
42.875651,-0.024392,-3.699174,-9.624585
42.908807,0.057463,-3.751998,-9.260354
42.942788,-0.084399,-3.431911,-8.688120
42.975689,0.058959,-3.915258,-8.306680
43.009324,0.247809,-3.448522,-9.368247
43.042714,-0.122707,-3.257278,-8.879812
43.075681,-0.062850,-3.003783,-9.086918
43.109399,-0.056715,-2.870152,-8.749773
43.142628,0.644662,-3.262366,-9.370941
43.175989,0.955770,-3.235729,-10.067828
43.209452,0.910577,-3.518106,-9.676512
43.242701,0.453568,-3.661464,-9.193913
43.275999,-0.054470,-3.455854,-8.800202
43.309381,-0.137223,-3.448372,-9.104726
43.342629,-0.054320,-3.483987,-9.701352
43.375997,-0.021998,-3.730449,-9.404610
43.409438,-0.102206,-3.723565,-8.836715
43.442732,0.068536,-3.477552,-8.708022
43.475992,0.311257,-3.470370,-8.836865
43.509381,0.607999,-3.884132,-8.922161
43.542310,0.683569,-4.123112,-9.079287
43.576028,0.251849,-3.656825,-8.882955
43.609332,-0.111185,-3.628243,-8.210460
43.642705,-0.054919,-3.621060,-8.334214
43.675265,0.057014,-3.922142,-8.569752
43.709367,0.202467,-3.878745,-9.414187
43.742763,-0.070931,-3.613129,-9.508014
43.775988,-0.147847,-3.737632,-9.037985
43.809366,-0.101907,-3.623155,-8.858114
43.842630,-0.069285,-3.809760,-8.571099
43.875991,-0.026188,-4.082110,-8.828784
43.909374,-0.061803,-3.797190,-9.484071
43.942299,-0.366326,-3.476954,-9.126274
43.976044,-0.175232,-3.921842,-8.952240
44.008486,-0.102655,-3.771002,-9.245390
44.042706,-0.227607,-3.522595,-8.921563
44.076137,-0.133482,-3.931719,-8.399758
44.108810,0.080358,-3.969728,-8.966306
44.142716,0.059558,-3.706357,-9.659602
44.175354,0.006285,-3.840437,-9.397278
44.208799,-0.064047,-3.555965,-9.244941
44.242705,-0.207405,-3.534866,-8.369231
44.275763,0.053123,-3.884132,-8.213602
44.309579,0.178973,-3.683012,-9.000874
44.342628,0.045192,-3.555965,-9.430199
44.375988,-0.020800,-3.630188,-9.060431
44.409572,0.128094,-3.649492,-8.927399
44.442577,0.240476,-3.439244,-8.914081
44.475994,0.311108,-3.838641,-8.631405
44.509414,0.481102,-3.850313,-9.339516
44.541823,0.215635,-3.450766,-9.480928
44.576017,0.051926,-3.630488,-8.727476
44.609605,0.213241,-3.733292,-8.861855
44.646331,0.159070,-3.510773,-9.125377
44.676012,0.206058,-3.859741,-9.304200
44.709397,0.359592,-3.959702,-10.043586
44.742710,0.201868,-3.469472,-10.205200
44.775999,0.104301,-3.422334,-8.910789
44.809374,0.231498,-3.554469,-8.089548
44.842426,0.281628,-3.437448,-8.074733
44.876035,0.187203,-3.585445,-8.202528
44.909375,0.362435,-3.874106,-9.414936
44.941893,0.337146,-4.012526,-9.742654
44.976037,0.191693,-3.722967,-9.959337
45.009375,-0.325922,-3.183205,-8.640533
45.041750,-0.116422,-3.635426,-8.172301
45.076034,0.149344,-3.680618,-8.912734
45.109375,0.049233,-3.950424,-9.404012
45.141785,-0.105798,-3.775492,-9.835881
45.176034,-0.128244,-3.794646,-9.749986
45.209380,-0.133332,-3.350206,-9.446361
45.241806,-0.187054,-3.506134,-8.483708
45.276037,0.049083,-3.608789,-8.901960
45.309379,0.030228,-3.697079,-9.160243
45.341825,0.034867,-3.881139,-9.162638
45.376038,0.011971,-3.596668,-9.225039
45.409379,-0.198127,-3.255033,-8.536382
45.442619,-0.134529,-3.585295,-8.048247
45.476043,0.058211,-3.762024,-8.658042
45.509661,0.174484,-3.584547,-9.670227
45.542067,-0.117021,-3.572725,-9.214414
45.575988,-0.084997,-3.333746,-9.058636
45.609377,-0.003741,-3.549381,-8.414872
45.641961,0.252597,-3.917503,-8.761146
45.675990,0.461200,-3.993372,-9.932551
45.709381,0.100410,-3.593675,-10.333145
45.755103,-0.122857,-3.395698,-9.322007
45.775990,-0.101907,-3.529927,-8.838960
45.809322,0.258134,-3.831159,-9.033645
45.842663,0.373060,-3.608490,-9.696713
45.875990,0.186455,-3.331202,-9.643740
45.909338,0.019903,-3.238573,-8.381053
45.942881,0.183313,-3.413505,-8.044655
45.975986,0.256638,-3.532920,-8.211208
46.009322,0.460002,-3.635126,-9.342060
46.042699,0.259032,-3.120804,-9.704944
46.075771,0.061803,-3.362776,-8.731965
46.109381,0.224464,-3.393902,-8.756507
46.142632,0.112232,-3.338983,-8.528301
46.175992,0.206208,-3.704561,-8.859611
46.209398,0.255889,-3.438645,-9.886760
46.242662,0.029929,-3.340629,-9.540187
46.275971,0.242272,-3.539205,-9.530759
46.309338,0.179871,-3.305164,-9.261252
46.342338,0.281329,-3.336439,-8.923209
46.375990,0.501603,-3.776389,-9.007009
46.409461,0.615631,-3.632583,-9.815979
46.441990,0.323977,-3.357389,-9.771235
46.475989,0.045192,-3.293192,-8.954484
46.509462,0.061803,-3.209841,-8.490442
46.541942,0.080508,-3.212385,-8.239341
46.575987,0.336697,-3.774145,-8.561821
46.609375,0.345526,-3.859741,-9.393537
46.641942,0.222220,-3.569882,-10.102246
46.675993,-0.325922,-2.981785,-9.711229
46.709397,-0.425285,-2.994206,-8.710866
46.742629,-0.300633,-3.429966,-7.911323
46.775677,0.484993,-4.256893,-9.071954
46.809426,0.495019,-3.973918,-10.407817
46.842691,-0.091432,-3.402132,-10.457049
46.875964,-0.434114,-3.452861,-9.267986
46.909474,-0.348518,-3.013061,-9.178500
46.942815,-0.317991,-3.515861,-8.076529
46.975992,0.393411,-4.381246,-8.793319
47.008574,0.424088,-3.526785,-10.427569
47.041927,-0.240327,-3.025032,-9.461774
47.076035,-0.316794,-3.367864,-7.732201
47.109352,0.151439,-3.960899,-8.021311
47.142658,0.514323,-3.816643,-9.745497
47.176043,0.230001,-3.507631,-10.372351
47.208873,-0.222519,-2.831245,-9.547519
47.242703,-0.404635,-3.128884,-7.534672
47.275566,0.299136,-3.954016,-7.761531
47.308733,0.649001,-3.845524,-9.392639
47.342708,0.416905,-3.684808,-10.226898
47.375622,-0.164009,-2.953054,-9.886461
47.409335,-0.427979,-2.774530,-8.440760
47.442710,-0.134080,-3.609538,-7.651394
47.475567,0.591090,-3.970027,-9.127920
47.509324,0.553829,-3.417246,-10.043586
47.542665,0.004639,-3.391208,-8.969299
47.575986,-0.115824,-3.549381,-8.215248
47.609373,0.048185,-3.475158,-8.591151
47.641821,0.236735,-3.426973,-9.444715
47.675989,-0.158921,-3.235729,-9.059384
47.709446,-0.115225,-3.558809,-8.502114
47.742333,0.082603,-3.587540,-8.684079
47.776122,0.238082,-3.792850,-9.169970
47.808937,0.009727,-3.677475,-9.913396
47.842717,-0.252298,-3.531574,-9.736967
47.875488,-0.532729,-3.532022,-8.774314
47.916953,-0.666360,-3.503441,-8.347981
47.942821,-0.502202,-3.565692,-8.511092
47.975985,-0.110885,-3.926182,-9.601690
48.009357,-0.102356,-3.650989,-10.134569
48.042803,-0.246312,-3.696630,-9.646134
48.075976,-0.339839,-3.486531,-9.149918
48.109327,-0.367523,-3.278527,-8.999527
48.142137,-0.431570,-3.462887,-8.625120
48.176035,-0.087541,-3.656226,-9.300159
48.208873,-0.110885,-3.550877,-9.558593
48.242615,0.107593,-3.551027,-9.675763
48.275634,-0.082753,-3.209243,-9.252124
48.309302,-0.066741,-3.506134,-8.556584
48.342691,0.135277,-3.594573,-8.915278
48.375361,0.041750,-3.489225,-9.100386
48.409357,0.062700,-3.345567,-9.475391
48.442678,-0.000449,-3.341078,-8.919019
48.475945,0.177177,-3.350805,-8.792870
48.509288,0.265467,-3.444032,-8.789578
48.542677,0.639574,-3.613728,-9.373485
48.575965,0.392663,-3.216575,-9.483622
48.608839,0.243918,-3.458398,-8.794516
48.642609,0.409273,-3.523044,-8.843000
48.676120,0.479905,-3.348411,-9.169671
48.709337,0.465838,-3.362627,-9.198402
48.742625,0.380841,-3.224207,-8.833573
48.775967,0.329663,-3.083243,-8.728972
48.809305,0.330112,-3.669095,-8.384943
48.842624,0.837103,-3.866774,-10.002434
48.875964,0.539612,-3.134870,-10.471564
48.909432,0.061354,-3.121103,-9.104726
48.942499,0.074821,-3.465880,-8.172600
48.975991,0.065693,-3.508678,-8.440311
49.009449,0.503997,-4.443198,-9.310784
49.043820,0.391915,-3.502244,-11.427035
49.075965,-0.242122,-3.151032,-10.417992
49.109532,-0.652743,-3.073217,-8.455275
49.142667,-0.471375,-3.138462,-7.552180
49.175987,-0.149344,-3.449270,-7.763925
49.209439,0.428577,-4.141967,-9.144232
49.242675,0.063149,-3.684509,-10.218818
49.275994,-0.572085,-3.283017,-9.300608
49.309398,-0.694194,-3.068279,-8.596688
49.342337,-0.679978,-2.899033,-7.898604
49.376040,-0.249604,-3.589934,-8.221533
49.409483,0.407328,-4.155884,-9.837527
49.442384,0.530484,-4.016866,-10.596217
49.476038,0.242571,-3.794795,-9.798620
49.509705,0.038758,-3.522595,-9.052650
49.542120,-0.166702,-3.480096,-8.153745
49.575866,-0.107144,-3.816943,-8.616890
49.609529,-0.075270,-3.851959,-9.790091
49.642592,-0.123455,-3.512270,-10.156267
49.675992,-0.180320,-3.321624,-9.303452
49.709359,-0.075270,-3.652186,-8.226920
49.742125,0.442943,-3.297981,-9.492750
49.775991,-0.069734,-2.301060,-9.024667
49.809755,0.382038,-3.387018,-8.515731
49.842010,0.519560,-3.415600,-8.867991
49.875377,0.768716,-3.809909,-9.195260
49.909651,0.382487,-3.489075,-9.667832
49.942395,-0.326671,-2.494249,-9.374083
49.975991,-0.616379,-2.183889,-8.397214
50.009451,-0.137073,-2.992560,-7.964297
50.042148,1.086857,-3.329256,-9.834684
50.075708,1.083864,-3.195326,-9.985225
50.109373,0.552482,-3.259972,-9.245241
50.150981,0.227158,-2.676364,-9.360915
50.176003,0.081406,-2.504275,-9.125825
50.209320,0.277438,-2.939586,-8.954185
50.242624,0.626705,-3.348261,-9.481078
50.275995,0.725170,-3.548932,-9.778867
50.309325,0.809568,-3.672986,-10.296782
50.342781,0.410321,-2.979541,-10.200411
50.376011,-0.053722,-3.049424,-8.823996
50.409354,0.305571,-3.793000,-9.006710
50.442756,0.437706,-3.555666,-10.147737
50.475311,0.351811,-3.421586,-10.363822
50.509390,0.024841,-2.874491,-9.669179
50.542800,-0.095023,-2.965923,-8.537579
50.575219,0.284621,-3.485184,-8.134441
50.609368,0.920753,-3.888771,-9.341910
50.642692,1.094040,-3.666103,-10.088030
50.675220,0.832015,-3.422334,-9.911601
50.709451,0.061803,-3.136067,-8.048247
50.742631,-0.292851,-3.186347,-7.502499
50.775993,-0.170743,-3.771750,-8.027147
50.809452,-0.032024,-3.689596,-9.579244
50.842365,-0.069883,-2.854738,-10.404076
50.875997,-0.094275,-2.831394,-9.469705
50.909860,0.083650,-3.504339,-7.895162
50.941957,0.673393,-3.915258,-8.778055
50.975998,0.818996,-3.747359,-9.856831
51.010423,0.029929,-2.910106,-9.934496
51.041801,0.011074,-2.690580,-9.262898
51.075997,0.358993,-2.853691,-8.752466
51.109371,0.794903,-3.425327,-8.692908
51.141885,0.943349,-3.657274,-8.968700
51.175064,0.565351,-3.463187,-9.132859
51.209372,0.055667,-3.101949,-9.016436
51.250320,-0.143957,-3.061096,-9.097393
51.276131,-0.087242,-3.161507,-9.278461
51.309358,-0.111933,-3.491320,-9.228630
51.342627,0.029480,-3.407819,-9.284447
51.376099,0.169994,-3.393603,-9.237609
51.409338,0.007482,-3.092371,-8.978726
51.442654,0.502501,-3.697378,-9.305696
51.476035,0.453268,-3.549082,-9.375580
51.508666,0.152935,-3.451515,-8.329426
51.542701,0.094724,-3.630936,-8.055280
51.576025,0.372461,-3.742720,-9.223542
51.608807,0.539313,-3.622556,-10.486080
51.642702,-0.037710,-2.928812,-10.513614
51.675191,-0.383086,-2.661849,-9.030503
51.708903,0.036962,-3.865577,-7.377248
51.742709,0.589144,-4.372118,-8.334663
51.775625,0.581662,-3.990977,-10.034009
51.808657,0.254692,-3.478750,-10.670739
51.842664,-0.032323,-3.385522,-10.401382
51.875807,-0.440998,-3.513018,-8.634697
51.909372,-0.013019,-4.127751,-8.508399
51.942631,-0.038608,-3.807066,-9.199300
51.975996,0.048484,-4.038863,-9.337121
52.009418,-0.121660,-3.667749,-10.115714
52.042622,-0.491128,-3.467077,-9.524474
52.075994,-0.248407,-3.489075,-8.993541
52.109459,-0.344328,-3.267005,-8.485354
52.141927,-0.344777,-3.444182,-8.021760
52.176001,0.115075,-3.812453,-8.408886
52.209435,0.265018,-3.553870,-9.210224
52.241965,0.103254,-3.207148,-9.013593
52.275507,0.047287,-3.358287,-8.273160
52.309413,0.199175,-3.210140,-8.166315
52.353060,0.248557,-3.535464,-7.907732
52.375980,0.395357,-3.714288,-8.898219
52.409346,0.173287,-3.101799,-9.512204
52.442591,-0.130638,-2.980139,-8.769825
52.475472,0.215336,-4.008635,-8.202229
52.509368,0.456261,-4.180276,-9.280107
52.542451,0.307217,-3.794795,-10.034457
52.576058,0.005238,-3.440591,-10.360380
52.609326,-0.508337,-3.022488,-9.431247
52.642662,-0.308115,-3.869467,-8.368034
52.676052,0.468083,-4.567252,-9.753428
52.709195,0.211894,-3.638868,-10.709497
52.742660,-0.339091,-2.993458,-10.041341
52.775399,-0.446834,-3.745264,-8.118579
52.809317,0.095323,-4.137328,-8.607612
52.842701,0.533477,-3.928876,-9.766746
52.875612,-0.030378,-3.101350,-9.880176
52.909327,-0.327568,-3.271644,-8.709968
52.942873,-0.107743,-3.807515,-8.327630
52.975715,0.580016,-3.835648,-9.866708
53.009329,0.452820,-3.244708,-10.630336
53.042707,0.107144,-2.924622,-9.778269
53.075230,0.004040,-3.090276,-8.443304
53.109379,0.561460,-3.415900,-8.322542
53.141986,0.492176,-3.109730,-8.507351
53.176003,0.381290,-3.100003,-8.632752
53.209377,0.377998,-3.193231,-8.781048
53.241953,0.230450,-3.152378,-8.837613
53.275997,0.292702,-3.259822,-9.083177
53.309373,0.014066,-3.197570,-8.933235
53.342073,-0.142011,-3.164050,-8.846442
53.375491,-0.239279,-2.786501,-8.651457
53.409381,-0.285519,-3.520650,-8.207616
53.450891,0.062251,-4.146157,-9.745647
53.476005,0.366176,-4.040210,-11.310313
53.509392,0.090235,-2.909209,-11.520861
53.542815,-0.732353,-2.472999,-8.532342
53.575965,-0.383385,-3.812902,-7.152334
53.609324,0.331459,-4.869082,-8.426095
53.642845,0.863440,-4.184017,-11.352812
53.675993,0.114626,-3.057654,-11.140618
53.709418,-0.531083,-3.013210,-8.869786
53.742708,-0.459553,-3.968232,-6.976354
53.775324,0.118816,-4.077770,-8.337207
53.809428,0.583159,-4.046046,-9.950358
53.842673,-0.099213,-3.091324,-10.590830
53.875338,-0.761084,-3.218969,-8.391976
53.909380,-0.616978,-3.690644,-7.412863
53.942347,-0.254393,-3.233634,-8.405594
53.976157,-0.343131,-3.505985,-8.633650
54.009093,-0.250203,-3.947880,-9.309288
54.042662,-0.617128,-2.943327,-9.740708
54.075999,-0.901299,-3.058702,-8.441209
54.109368,-0.668455,-3.898199,-7.972827
54.142660,-0.244217,-3.550877,-9.385456
54.176049,-0.404335,-3.436101,-9.372886
54.209245,-0.612938,-3.612979,-9.100386
54.242661,-0.415558,-3.440890,-9.432743
54.276060,-0.448779,-3.448222,-9.017185
54.308910,-0.235837,-3.718478,-9.072403
54.342668,-0.296143,-3.278827,-8.755010
54.376038,-0.339091,-3.740475,-8.143719
54.408759,0.152785,-4.625015,-8.662082
54.442669,0.247809,-3.696181,-10.945783
54.476038,-0.402839,-2.579545,-10.507928
54.513999,-0.725469,-3.317584,-7.495166
54.542240,-0.210997,-4.412971,-7.255738
54.575990,0.489482,-4.538820,-9.301357
54.609605,0.473321,-3.531125,-11.227710
54.642706,-0.334602,-3.129932,-9.814183
54.675512,-0.621766,-3.333895,-8.251761
54.709477,-0.562209,-3.346316,-7.574776
54.742678,-0.007931,-3.879344,-8.295457
54.776078,-0.005387,-3.954913,-9.643590
54.809366,-0.224165,-3.933066,-9.947216
54.842394,-0.468831,-3.773097,-9.409548
54.876037,-0.612638,-3.579908,-8.464553
54.909224,-0.525995,-3.604001,-8.372373
54.942665,-0.493522,-3.766363,-8.668816
54.976126,-0.202467,-4.084055,-9.323055
55.008850,-0.082603,-4.038564,-9.575203
55.042704,-0.172089,-3.935909,-9.246288
55.076469,-0.146949,-3.725511,-9.341461
55.108822,-0.277288,-3.429218,-8.955532
55.142707,-0.238381,-3.546837,-8.376713
55.176156,0.135277,-4.402795,-8.571398
55.209028,0.584805,-4.052630,-10.760675
55.242710,0.379943,-3.541001,-10.762620
55.276325,0.007482,-3.290499,-9.449653
55.308673,0.043097,-3.466030,-7.893217
55.342689,0.525247,-3.925434,-7.682669
55.376045,0.814207,-3.707254,-9.187628
55.408312,0.656334,-3.515262,-10.032961
55.442662,0.421245,-3.194877,-9.906363
55.476268,0.113429,-3.097459,-8.609408
55.508953,0.241374,-3.189190,-7.427228
55.542727,0.482449,-3.287356,-7.412713
55.576014,0.670251,-3.640813,-8.022658
55.614193,0.754500,-3.475009,-9.608873
55.642782,0.720232,-2.817028,-10.567486
55.675975,0.065693,-2.399076,-9.197654
55.708676,0.174035,-2.847107,-7.791160
55.742694,0.640173,-3.038500,-8.041962
55.775999,1.036577,-3.262964,-8.714158
55.809371,0.954872,-2.901277,-9.726043
55.842376,0.221172,-2.403864,-9.224739
55.876042,-0.235688,-2.504724,-8.075182
55.909322,-0.055368,-2.705395,-8.410383
55.942663,0.133930,-3.114519,-8.083413
55.976042,0.487387,-3.839090,-8.144317
56.009319,0.743426,-3.733292,-9.492002
56.042704,0.237184,-3.354845,-9.915641
56.075619,-0.349267,-3.567937,-8.954035
56.109068,-0.662918,-3.965239,-7.834257
56.142706,-0.319488,-3.710995,-9.503524
56.175332,-0.277887,-3.031467,-10.403926
56.209384,-0.379495,-3.529479,-9.238806
56.242643,-0.212194,-3.957906,-8.632453
56.275993,-0.034717,-4.024647,-8.917373
56.309417,-0.100859,-3.930971,-9.649426
56.342626,-0.423041,-3.964341,-9.464168
56.376349,-0.989140,-3.820534,-9.465515
56.409297,-1.047800,-4.031381,-8.708471
56.442664,-1.002608,-3.586193,-9.518040
56.476015,-1.092842,-3.519452,-9.115051
56.509255,-0.442644,-4.148551,-9.222944
56.542666,-0.439352,-3.634528,-9.241948
56.576198,-0.852516,-3.216575,-8.325984
56.608689,-0.802236,-3.541899,-7.931226
56.642661,-0.524349,-3.441189,-8.659538
56.676009,-0.203365,-3.630039,-9.196307
56.709810,-0.150690,-3.393303,-9.391591
56.742632,-0.468682,-2.987023,-8.668367
56.775983,-0.456112,-3.085638,-7.857901
56.809316,-0.284322,-3.489823,-7.660222
56.842660,-0.089636,-3.613877,-8.444501
56.876020,-0.094275,-3.226003,-9.295371
56.909364,-0.373958,-3.106588,-8.825043
56.942462,-0.385031,-2.944075,-8.674502
56.976390,-0.377848,-3.104792,-7.802084
57.008963,-0.155180,-3.444182,-8.105709
57.042712,-0.203814,-2.743255,-9.052500
57.076043,-0.417504,-2.533006,-8.485952
57.109026,-0.162363,-3.011115,-8.712811
57.142638,0.295844,-3.426674,-9.824209
57.175970,0.300483,-2.704347,-10.622255
57.209333,-0.225213,-2.711680,-9.714820
57.242655,-0.375155,-3.058403,-9.367648
57.276014,-0.214289,-2.861472,-10.969726
57.309355,-0.080957,-2.806404,-11.360144
57.342659,-0.064197,-2.397430,-11.531934
57.375070,-0.459553,-2.281456,-9.430499
57.409453,-0.214588,-2.561887,-8.478919
57.442082,0.165954,-2.492603,-8.761595
57.475995,0.411967,-2.485569,-8.761295
57.509341,0.413763,-2.923425,-8.307279
57.542247,0.413314,-3.398840,-8.766383
57.575997,0.123605,-3.168689,-9.347896
57.609423,-0.445936,-2.173713,-9.583284
57.642189,-0.768117,-1.894330,-8.695153
57.675995,-0.367373,-2.966222,-7.656182
57.709382,0.222369,-3.705010,-8.149555
57.742287,0.450425,-3.113770,-9.726792
57.775997,0.042050,-2.809846,-9.709583
57.809382,-0.196780,-2.876886,-9.270081
57.852279,-0.498610,-3.044486,-8.553890
57.876007,-0.352858,-3.228098,-9.460726
57.908936,-0.454017,-2.579545,-10.420087
57.942626,-0.679678,-2.391145,-9.643291
57.976009,-0.132135,-3.639765,-8.927848
58.009335,0.181667,-4.086749,-9.292677
58.042713,0.221920,-3.352301,-10.269547
58.075957,-0.500855,-3.345268,-9.263946
58.109329,-0.923746,-3.287955,-8.823996
58.141794,-0.780987,-2.976847,-9.398325
58.175961,-0.324576,-2.936144,-10.062590
58.209326,-0.095472,-3.192183,-9.840371
58.242706,-0.281778,-3.025032,-9.388150
58.276032,-0.537368,-3.353199,-8.100322
58.309322,-0.323827,-3.953417,-8.033731
58.342661,-0.170892,-3.500747,-9.532854
58.375633,-0.291654,-2.859527,-10.220015
58.409323,-0.557570,-3.022638,-9.073301
58.442785,-0.682671,-3.145195,-7.905787
58.475778,-0.502351,-3.661763,-7.837100
58.509332,-0.124204,-4.218135,-9.068961
58.542760,-0.074223,-3.516759,-10.729399
58.575897,-0.383236,-3.119906,-10.390757
58.609384,-1.050793,-2.809846,-8.511990
58.642701,-1.036277,-3.740774,-7.085294
58.675127,-0.208902,-4.371370,-8.766383
58.709383,0.215336,-3.913762,-10.836244
58.742646,-0.262773,-3.301123,-11.163962
58.775991,-0.751956,-3.089079,-9.660949
58.809453,-0.937663,-3.393752,-7.770060
58.842556,-0.783082,-3.936657,-7.536767
58.875369,-0.361537,-3.914360,-9.178949
58.909378,-0.255441,-3.500149,-10.325064
58.950171,-0.685365,-2.959937,-9.844261
58.975965,-0.722775,-3.357688,-8.197890
59.009371,-0.526594,-3.408417,-7.775148
59.042769,-0.374107,-3.449120,-7.742376
59.075998,-0.087840,-3.814399,-8.848537
59.109440,0.113280,-3.866474,-9.792934
59.142662,-0.148745,-2.826007,-10.390458
59.175993,-0.702723,-3.087583,-8.252659
59.209401,-0.783082,-3.413056,-7.706312
59.242641,-0.540061,-3.154024,-9.161590
59.275989,-0.306020,-3.230043,-10.260867
59.309442,-0.281927,-3.107785,-10.707551
59.342659,-0.597973,-2.984329,-9.090360
59.375334,-0.564603,-3.362627,-8.239191
59.409380,-0.211894,-3.573025,-8.615543
59.442438,0.086643,-3.168240,-10.120352
59.475857,-0.271452,-3.259074,-9.696414
59.509379,-0.479157,-3.359484,-9.505170
59.542010,-0.721429,-2.895741,-9.149020
59.576040,-0.553080,-2.953503,-8.812623
59.609386,-0.206807,-3.281071,-9.052800
59.641881,-0.133631,-3.063341,-9.393686
59.676025,-0.187802,-3.240518,-8.823098
59.709333,-0.294348,-3.439094,-8.484905
59.742679,-0.390568,-3.278827,-8.629310
59.775990,-0.278934,-3.230492,-9.452646
59.809446,-0.425285,-3.199217,-9.607227
59.842120,-0.406131,-3.385672,-9.631020
59.875991,-0.555475,-3.326263,-9.070907
59.909360,-0.562358,-3.469921,-8.676747
59.942154,-0.282077,-3.570032,-9.421819
59.975186,-0.444888,-3.199217,-9.566823
60.009637,-0.563256,-3.271344,-8.791373
60.047402,-0.634187,-3.611184,-8.242483
60.075967,-0.484993,-3.572725,-8.769077
60.109374,-0.339091,-3.148937,-9.850097
60.142677,-0.722775,-3.113322,-9.046365
60.175988,-0.728013,-3.649043,-8.618835
60.209379,-0.193339,-4.009383,-10.377140
60.242524,-0.279982,-2.975949,-11.317047
60.276038,-0.791162,-2.988669,-9.556199
60.309378,-0.650199,-3.842831,-8.548653
60.342109,-0.285818,-3.620162,-9.524624
60.376038,-0.253346,-2.995852,-10.241114
60.409378,-0.724272,-2.635512,-8.642329
60.441965,-0.716790,-2.817926,-7.583456
60.475520,-0.395656,-3.193530,-7.271749
60.509520,0.042499,-2.817777,-8.657892
60.541861,-0.100710,-2.853541,-8.659538
60.576034,-0.245714,-3.171383,-8.546408
60.609381,-0.367972,-2.982384,-8.705478
60.641686,-0.410321,-3.044785,-8.325834
60.676042,-0.238830,-3.505985,-8.555985
60.709387,-0.342682,-3.708601,-9.570714
60.742449,-0.468382,-3.550279,-10.310549
60.776042,-0.916264,-2.995403,-10.143248
60.809387,-0.997819,-2.840672,-8.991895
60.842479,-0.596626,-3.539056,-8.825342
60.876041,0.191244,-4.459210,-9.985823
60.909382,0.119714,-3.186347,-11.635487
60.942641,-0.367673,-3.021890,-10.498201
60.975993,-0.704369,-3.252041,-9.005662
61.009387,-0.415110,-3.895356,-8.866494
61.043766,-0.014515,-3.490571,-10.513614
61.076011,-0.518214,-2.706293,-10.246352
61.109384,-0.920903,-2.690730,-8.132945
61.153124,-0.640023,-3.133673,-7.200220
61.176054,-0.310808,-3.298579,-7.612636
61.209359,0.094125,-2.984778,-9.247784
61.242656,-0.271452,-2.963080,-9.015090
61.275592,-0.501753,-3.058552,-8.933983
61.309374,-0.919406,-2.456090,-8.696949
61.342662,-0.892171,-3.137713,-8.192502
61.376007,-0.645260,-3.371605,-8.949995
61.409566,-0.439801,-3.315938,-10.245604
61.442358,-0.774103,-2.916391,-10.466626
61.476139,-1.280794,-2.276219,-9.279209
61.509379,-1.011437,-3.226302,-7.782780
61.542331,-0.327119,-3.589186,-9.231024
61.575791,0.354055,-3.473662,-11.236240
61.609474,-0.392813,-2.433643,-10.763518
61.642793,-1.060819,-2.664243,-8.237246
61.675911,-1.045855,-3.250394,-7.474815
61.709386,-0.723224,-2.568322,-8.945805
61.743444,-0.277887,-3.024883,-9.526719
61.776127,-0.309162,-3.122300,-10.286157
61.808520,-0.867331,-2.591367,-10.202207
61.842663,-1.205224,-2.577600,-9.006111
61.876046,-0.987943,-3.165996,-8.614346
61.909244,-0.920454,-3.160908,-9.337720
61.942679,-0.793257,-3.227349,-10.273437
61.976050,-1.062465,-2.612467,-10.718326
62.009174,-1.556436,-2.462375,-9.437681
62.042659,-1.633203,-2.706742,-8.329575
62.075908,-1.226174,-2.981785,-8.657443
62.108980,-0.793108,-3.265957,-9.625633
62.142723,-0.687310,-2.897237,-10.532619
62.177013,-1.358908,-2.159048,-9.110412
62.209330,-1.500171,-2.499486,-7.352856
62.242971,-1.249668,-2.956496,-7.156674
62.276061,-0.768716,-2.693124,-8.291416
62.309516,-0.539164,-2.699858,-9.187628
62.342704,-0.662320,-2.500983,-9.712426
62.375997,-0.816302,-3.115566,-9.243445
62.409749,-0.673693,-2.706293,-10.221661
62.442014,-0.736543,-2.304651,-10.114666
62.475993,-0.896062,-2.881525,-8.911986
62.509105,-0.622964,-3.596070,-9.487662
62.542433,-0.027983,-3.518555,-11.699235
62.576041,-0.518962,-2.776924,-11.953030
62.609334,-1.545363,-2.653319,-9.820019
62.642666,-1.870537,-2.675167,-8.920066
62.676045,-1.233507,-2.127623,-9.881073
62.708659,-0.632092,-2.536897,-9.640298
62.742034,-0.434862,-3.096861,-8.938024
62.776045,-0.135876,-3.670741,-9.035441
62.808906,-0.157275,-3.063041,-9.857729
62.842705,-0.791761,-2.787998,-9.257362
62.876045,-1.055282,-2.838128,-9.205286
62.908630,-1.124118,-2.390845,-9.411494
62.942710,-1.027299,-2.611269,-8.894178
62.976050,-0.651845,-2.864765,-9.169820
63.008602,-0.322929,-2.639702,-9.954997
63.042710,-0.215187,-2.845610,-9.561885
63.076044,-0.543952,-2.676065,-8.960620
63.108568,-0.688507,-2.307943,-8.811426
63.142049,-0.649301,-2.604685,-8.270915
63.176049,-0.216833,-3.197271,-9.227283
63.208635,-0.121809,-3.019795,-10.251589
63.242937,-0.143807,-2.426610,-10.813349
63.278247,-0.766022,-2.544529,-8.740645
63.309299,-0.525995,-3.278827,-8.480266
63.342848,-0.159519,-3.325964,-10.086384
63.376082,0.027684,-3.119307,-11.724824
63.409368,-0.597375,-2.212770,-11.917714
63.442868,-1.365492,-1.685429,-9.559640
63.475923,-1.328081,-2.454144,-7.580313
63.509531,-0.674291,-3.439244,-7.824530
63.542903,0.454615,-3.186946,-11.220677
63.575224,0.134978,-2.263350,-12.053141
63.609696,-0.993480,-1.750074,-9.720507
63.642633,-1.271067,-2.762708,-7.364678
63.676199,-0.917012,-3.348411,-7.693294
63.708377,0.124054,-3.454807,-10.519301
63.742338,-0.074223,-1.734661,-12.518979
63.776042,-1.046603,-1.125914,-10.041191
63.819175,-1.062615,-1.916777,-6.881780
63.842672,-0.538266,-2.888109,-6.429409
63.875986,0.764526,-3.329855,-8.525907
63.909318,1.071443,-2.776775,-10.327009
63.942654,-0.149643,-1.860660,-9.771086
63.975988,-0.736842,-1.703386,-8.262086
64.009377,-0.640322,-2.189426,-7.300331
64.041951,0.559066,-3.236328,-8.743188
64.076081,1.288426,-3.297382,-11.235492
64.109324,0.635534,-2.364209,-11.961709
64.142658,-0.745820,-2.262302,-9.039182
64.176052,-0.830518,-2.506669,-8.076978
64.209011,0.002095,-2.829449,-8.892532
64.242662,1.148959,-3.307109,-10.933512
64.276150,0.732951,-2.651523,-11.272454
64.308929,-0.231049,-2.286395,-9.349093
64.342659,-0.166702,-3.123946,-8.110498
64.376082,0.831865,-3.424728,-9.902023
64.414293,1.174099,-3.106139,-11.246266
64.442659,0.224913,-2.886313,-10.061393
64.476077,-0.157724,-2.877185,-8.903905
64.509226,0.420946,-3.221513,-9.445014
64.542655,0.989888,-3.089379,-11.004443
64.576044,0.660524,-2.981785,-10.582600
64.609136,-0.063598,-2.286395,-9.600643
64.642742,-0.178374,-2.474047,-7.395803
64.675566,0.551434,-3.019346,-7.789514
64.709424,1.171255,-3.212385,-9.444116
64.742638,0.789815,-3.176172,-9.742205
64.775980,0.177028,-2.729188,-8.928895
64.809367,-0.133332,-2.756124,-7.619968
64.842232,0.115973,-3.004830,-7.741778
64.875937,0.711552,-4.087647,-8.581724
64.909951,1.018021,-4.454721,-10.435800
64.942055,-0.170593,-2.521933,-11.215290
64.975995,-0.848625,-2.405660,-9.040379
65.009509,-0.591090,-3.788660,-7.379193
65.042717,0.380093,-3.907477,-9.498436
65.075996,0.234490,-2.623091,-10.474707
65.109376,-0.538565,-3.250245,-8.207916
65.142381,-0.756894,-4.586706,-7.833060
65.175996,-0.267861,-3.777587,-10.098205
65.209347,-0.312604,-2.538543,-11.123559
65.242007,-0.947090,-2.991512,-8.625719
65.275995,-1.086408,-4.278591,-7.145750
65.309381,-0.084848,-4.992538,-9.475092
65.341890,-0.265766,-3.267603,-11.338446
65.375998,-0.968040,-2.452498,-10.380133
65.409454,-1.142823,-4.010431,-7.648251
65.441818,-0.735196,-4.471780,-8.057524
65.476004,-0.625358,-3.959702,-9.093503
65.509379,-1.058724,-3.208345,-9.595106
65.551452,-1.373273,-3.101649,-7.887081
65.575984,-1.227671,-3.594723,-7.266512
65.609323,-0.261576,-4.484051,-8.107356
65.642683,-0.165206,-3.536362,-9.836480
65.675991,-0.807324,-2.787848,-9.584930
65.709300,-1.154645,-3.936058,-8.092990
65.742656,-0.889927,-4.270361,-8.960171
65.776041,-0.842490,-3.267903,-10.147288
65.809326,-1.179935,-3.014856,-9.407453
65.842670,-1.197293,-3.780280,-8.552244
65.876050,-0.674740,-3.395099,-9.758217
65.908776,-0.175382,-3.012462,-10.388513
65.941787,-0.223716,-3.606096,-9.074648
65.976050,-0.330112,-4.017614,-8.559577
66.008780,-0.419300,-3.189340,-10.164198
66.042700,-0.525097,-1.919171,-11.290560
66.075880,-0.979114,-1.728526,-9.937788
66.108712,-0.722626,-2.358522,-8.104363
66.142705,-0.353307,-2.640749,-8.255801
66.175253,0.235538,-2.688186,-9.468358
66.209325,0.096520,-1.946107,-10.903733
66.242295,-0.286417,-2.185535,-9.966370
66.275510,-0.828423,-2.460729,-8.923059
66.309325,-0.802086,-1.429838,-9.926266
66.342665,-1.144020,-0.870473,-9.401468
66.375989,-1.031040,-1.310723,-9.063424
66.409372,-0.643914,-1.633652,-9.107120
66.443192,-0.320086,-2.262601,-9.072702
66.475994,0.030378,-2.104429,-10.106286
66.509378,-0.088289,-1.767433,-9.911451
66.541890,-0.353906,-2.264846,-9.257212
66.576322,-0.645111,-2.580293,-9.100386
66.608644,-0.523601,-2.166231,-10.124243
66.642631,-0.593484,-1.615994,-10.677024
66.676017,-0.810167,-2.211573,-9.928959
66.709322,-0.799991,-2.398328,-9.348195
66.742659,-0.731455,-2.254670,-9.693870
66.776030,-0.669203,-2.299862,-10.152226
66.809322,-0.679978,-2.560391,-10.293489
66.842660,-1.123968,-2.003120,-10.274185
66.876299,-1.196695,-2.190473,-8.867242
66.909362,-1.038372,-2.360468,-8.502263
66.941770,-0.674590,-1.982470,-9.408800
66.975223,-0.278336,-2.511158,-9.203939
67.009356,-0.370516,-2.616657,-8.648016
67.042012,-0.643165,-2.284000,-8.808582
67.075999,-0.780238,-2.288939,-8.504209
67.109451,-0.696738,-2.884218,-8.560774
67.142566,-0.817200,-2.685193,-9.334128
67.176065,-0.991684,-3.082046,-9.144980
67.209498,-1.170956,-2.969365,-9.562783
67.242204,-1.388387,-2.223096,-9.928211
67.275967,-1.641284,-2.709136,-8.470689
67.309369,-1.190709,-3.428918,-8.454078
67.342117,-1.020715,-3.136815,-9.336523
67.375986,-0.826777,-3.234682,-9.829147
67.409420,-0.899354,-3.425926,-9.763155
67.441660,-1.157189,-3.035956,-9.964125
67.475992,-1.235602,-3.261318,-8.932487
67.509632,-1.253110,-3.488476,-8.873079
67.542090,-1.082517,-3.698575,-9.430499
67.576043,-1.331224,-3.492367,-10.054659
67.609408,-1.494035,-3.231839,-9.991809
67.642500,-1.539078,-3.145944,-9.569218
67.676061,-1.361452,-3.586493,-8.599382
67.708604,-1.076831,-3.985890,-8.661034
67.750546,-0.906537,-3.879942,-10.042987
67.775965,-1.208217,-3.222112,-10.349605
67.809305,-1.630510,-2.981037,-9.498436
67.842657,-1.725234,-3.562550,-8.316556
67.875998,-1.168262,-4.062207,-8.841205
67.909324,-1.128158,-3.406622,-9.813435
67.942672,-1.198640,-3.480845,-9.491553
67.976040,-1.257001,-3.603402,-8.538477
68.009251,-1.257001,-3.623005,-7.866879
68.042662,-0.799393,-4.349821,-8.074883
68.076007,-0.600667,-4.159924,-9.855784
68.109323,-0.763179,-3.076360,-10.829959
68.142353,-1.358459,-2.928812,-9.234915
68.176197,-1.262388,-4.189703,-7.434411
68.208845,-1.029693,-4.115480,-7.952924
68.242721,-0.714096,-3.725361,-9.039332
68.276227,-0.626854,-3.572276,-9.349093
68.308785,-0.648702,-3.907327,-8.699343
68.342869,-0.566847,-3.842681,-8.966007
68.376033,-0.679828,-3.649043,-8.881159
68.408745,-0.677733,-3.744515,-9.081980
68.442703,-0.624909,-3.708601,-9.107719
68.475957,-0.305421,-4.469386,-8.688569
68.508719,-0.250802,-4.244173,-9.517291
68.542692,-0.731455,-3.418892,-9.828249
68.575764,-0.873466,-3.548334,-9.079287
68.609324,-0.698533,-3.716083,-8.484605
68.642640,-0.426033,-3.778634,-8.288124
68.675993,-0.182564,-3.972272,-8.500617
68.709370,-0.000898,-3.737632,-9.366152
68.742039,-0.282227,-3.596668,-8.970047
68.775853,-0.186455,-3.464982,-9.193614
68.809373,-0.341336,-3.278677,-8.984862
68.847412,-0.508038,-3.374598,-8.164519
68.875963,-0.161165,-3.840736,-8.696350
68.909326,-0.001646,-4.064901,-9.775126
68.942663,-0.194386,-3.449868,-10.446275
68.976162,-0.816751,-2.845610,-8.942214
69.009309,-0.694044,-3.542198,-7.564301
69.042659,-0.222818,-4.094081,-8.556135
69.076137,0.235089,-4.050086,-10.687948
69.109331,-0.033071,-3.305912,-11.421947
69.142703,-0.928385,-2.601692,-8.981570
69.176011,-1.013831,-2.971161,-6.867264
69.209350,-0.492325,-3.750800,-6.794837
69.241852,0.597075,-4.053378,-9.694469
69.276121,0.479007,-3.655628,-10.881137
69.309358,-0.247659,-3.103295,-10.339130
69.342659,-0.929582,-2.920282,-8.023107
69.376047,-0.547244,-3.379836,-7.421542
69.409357,0.206058,-3.719076,-8.625419
69.442660,0.261726,-3.703813,-10.020690
69.476245,-0.154132,-3.873358,-10.008569
69.509349,-0.493223,-3.473961,-9.988218
69.541864,-0.571786,-3.460044,-9.126125
69.576340,-0.400295,-3.448372,-8.859012
69.609355,-0.327269,-3.651886,-8.566610
69.642662,-0.434862,-3.692290,-8.785388
69.676047,-0.543653,-3.701568,-9.106821
69.709276,-0.535871,-3.914211,-9.192866
69.742660,-0.649151,-3.701418,-9.079287
69.776052,-0.605156,-3.900294,-8.519472
69.809226,-0.591539,-3.967184,-8.464404
69.842660,-0.746419,-3.964491,-8.951342
69.876162,-1.019966,-3.815895,-9.269782
69.910452,-1.242635,-4.033326,-9.018980
69.942633,-1.266428,-3.894458,-9.454142
69.975120,-1.283787,-3.451963,-9.793532
70.009355,-1.049446,-3.622257,-9.169671
70.042652,-0.769165,-3.866774,-8.373121
70.076116,-0.429775,-3.869318,-8.610904
70.109458,-0.572085,-3.696779,-8.903905
70.142671,-0.963551,-3.316686,-8.678543
70.175987,-1.074436,-3.417246,-8.158833
70.209384,-1.059173,-3.319230,-8.239790
70.242665,-0.639125,-3.560754,-8.653702
70.275986,-0.568194,-3.254435,-9.216808
70.309434,-0.818098,-3.216425,-8.641132
70.342551,-0.528090,-3.895505,-8.580826
70.376042,-0.147997,-3.964491,-9.487363
70.409702,-0.228355,-3.612680,-9.966220
70.441950,-0.416756,-3.491020,-9.547519
70.476078,-0.619671,-3.405125,-8.897171
70.509871,-0.466886,-3.873807,-8.936377
70.542059,-0.408675,-3.892512,-9.671873
70.576114,-0.454765,-3.643506,-10.253086
70.609404,-0.625956,-3.531424,-9.657357
70.641963,-0.576125,-3.457800,-8.951641
70.676037,-0.472123,-3.481892,-8.625569
70.709568,-0.243469,-3.921992,-8.604021
70.741909,-0.202467,-4.174889,-9.327993
70.776037,-0.394010,-3.920944,-10.149832
70.809379,-0.772307,-3.256231,-9.790390
70.841911,-0.886784,-3.381332,-8.498522
70.876044,-0.605006,-3.637521,-8.072489
70.909597,-0.352259,-3.898049,-8.495230
70.942018,-0.407328,-3.897600,-9.134056
70.976035,-0.474817,-3.739428,-9.732328
71.009416,-0.949784,-3.414403,-9.080035
71.052993,-0.835157,-3.644404,-8.433577
71.075993,-0.726517,-3.730449,-8.549550
71.109368,-0.748364,-3.577364,-8.721790
71.142534,-0.909829,-3.768608,-8.403349
71.176036,-1.128158,-4.141369,-8.575588
71.209362,-1.374321,-3.782225,-9.197205
71.242649,-1.582624,-3.600110,-9.579393
71.276034,-1.633502,-3.593077,-9.293126
71.309126,-1.291119,-3.495360,-9.114902
71.342709,-1.254158,-3.830710,-8.163322
71.375998,-1.085211,-4.005343,-8.108852
71.409371,-1.228569,-3.710696,-8.958974
71.442388,-1.236500,-3.640813,-9.764502
71.475476,-1.057826,-3.341826,-10.347959
71.509372,-1.071144,-3.043588,-9.301207
71.542596,-0.949335,-3.371905,-8.229165
71.575656,-0.634336,-3.730748,-8.237695
71.608773,-0.320386,-3.780430,-9.207231
71.641947,-0.349117,-3.682264,-9.635360
71.675992,-0.388024,-3.495809,-9.559191
71.709298,-0.580016,-3.407520,-9.025864
71.742740,-0.469879,-3.498502,-8.831029
71.776275,-0.348967,-3.438795,-8.961218
71.809374,-0.315747,-3.438645,-9.161590
71.842698,-0.342832,-3.574970,-9.106970
71.875722,-0.258882,-3.658620,-9.144381
71.909408,-0.286117,-3.551027,-9.268884
71.942712,-0.334452,-3.720872,-9.006560
71.975991,-0.414511,-3.350057,-9.301207
72.009423,-0.514024,-2.984329,-9.120588
72.042626,-0.315298,-3.123198,-8.953586
72.075528,-0.353157,-3.094466,-8.977829
72.109362,-0.043247,-3.735088,-9.421670
72.145632,-0.085895,-3.541749,-9.003717
72.175964,-0.008679,-3.309803,-9.265742
72.209201,-0.193937,-3.214031,-9.136300
72.242633,-0.612339,-3.254584,-8.897021
72.275988,-0.885587,-3.349907,-9.050705
72.309390,-0.760785,-3.356940,-9.321708
72.342656,-0.592586,-3.149086,-9.374831
72.375192,-0.197828,-3.218969,-9.002520
72.409468,0.358245,-3.341078,-9.178051
72.442881,0.400594,-3.491918,-8.914829
72.475993,0.336846,-3.888771,-8.810378
72.509788,0.222818,-3.637371,-9.282502
72.542456,0.055817,-3.402881,-9.511306
72.575339,0.042349,-3.120804,-9.556797
72.609377,0.103104,-3.078006,-9.204687
72.641854,0.164458,-3.331651,-8.943560
72.676039,0.150391,-3.551626,-8.769376
72.709410,0.045192,-3.427123,-8.971244
72.741958,-0.069135,-3.371905,-9.201844
72.776042,-0.281329,-3.352601,-9.240003
72.809397,-0.374257,-3.132476,-9.458482
72.841869,-0.255141,-3.161058,-9.653167
72.876041,-0.428877,-3.259373,-9.071954
72.909262,-0.528988,-3.280922,-8.874575
72.941708,-0.464342,-3.340779,-8.890736
72.976035,-0.526594,-3.622856,-8.685875
73.009379,-0.514472,-3.562699,-9.355078
73.042661,-0.634336,-3.292294,-9.733825
73.076044,-0.742977,-3.194278,-9.613063
73.109201,-0.859699,-3.151630,-8.983365
73.141767,-0.739236,-3.352750,-8.432380
73.176039,-0.547843,-3.678074,-8.492537
73.212615,-0.565501,-3.608340,-9.059234
73.242660,-0.708260,-3.342575,-9.526719
73.275996,-0.720531,-3.359335,-9.505320
73.309335,-0.493223,-3.555516,-9.340413
73.342702,-0.565950,-3.345268,-9.219203
73.375980,-0.543354,-3.488776,-9.111460
73.409327,-0.496216,-3.596369,-9.058486
73.442724,-0.360041,-3.658471,-9.283998
73.475989,-0.352858,-3.428769,-9.706889
73.509504,-0.468981,-3.227948,-9.552757
73.542678,-0.492026,-3.362028,-9.196906
73.575993,-0.303027,-3.369361,-9.223542
73.609392,-0.231198,-3.261618,-9.442620
73.642253,-0.345825,-3.046431,-9.431845
73.676041,-0.510582,-2.994206,-8.776260
73.709383,-0.357647,-3.199965,-8.573942
73.741926,-0.296742,-3.240368,-8.915128
73.776062,-0.521955,-2.785603,-9.689381
73.809378,-0.578071,-2.663644,-9.560987
73.842655,-0.730108,-2.702402,-8.771471
73.876029,-0.711702,-2.733677,-8.484456
73.909029,-0.530484,-2.759865,-8.673754
73.942661,-0.242272,-2.709286,-9.686388
73.976040,-0.286417,-2.591965,-10.016650
74.009385,-0.409124,-2.692226,-9.939135
74.042707,-0.429026,-2.525225,-9.411045
74.076056,-0.279533,-2.477788,-9.091557
74.108787,-0.092779,-2.489759,-9.122982
74.142658,-0.070781,-2.432147,-9.615158
74.176176,-0.013917,-2.460579,-10.013657
74.209303,0.116572,-2.530013,-9.942876
74.241726,0.138270,-2.568621,-9.524474
74.275477,0.305571,-2.611868,-9.319463
74.308734,0.247659,-2.783957,-9.286692
74.342710,0.066441,-2.659155,-9.960235
74.376242,-0.120612,-2.436636,-10.086533
74.409348,-0.128244,-2.573110,-9.618151
74.442154,0.151588,-2.592414,-9.660500
74.476067,0.369169,-2.429902,-9.870898
74.509438,0.518214,-2.669331,-9.534650
74.542658,0.483197,-2.903821,-8.980522
74.576025,0.477960,-3.040146,-8.954335
74.609389,0.290008,-2.853392,-9.233718
74.642293,0.033670,-2.628329,-9.580590
74.676045,-0.095323,-2.539740,-9.567571
74.709384,0.104750,-2.704796,-9.536745
74.741990,0.435012,-2.977745,-9.177153
74.776045,0.459853,-3.064089,-8.830281
74.809384,0.178225,-3.064239,-8.417416
74.842095,0.095622,-3.056756,-8.733911
74.876038,0.228954,-3.022788,-9.561885
74.909374,0.116422,-2.958142,-9.756720
74.942300,-0.024990,-2.798173,-9.244193
74.976092,-0.035016,-2.980139,-8.785537
75.009400,0.169695,-3.372204,-8.986508
75.042799,0.193039,-3.106438,-9.566973
75.075987,0.053123,-3.154324,-9.453843
75.109381,-0.157724,-3.070524,-9.367648
75.142721,-0.102356,-2.958142,-9.398176
75.176088,0.007781,-3.084889,-9.444715
75.209631,0.089486,-3.221214,-9.503674
75.242136,0.062551,-3.154324,-9.441722
75.276035,0.028432,-3.049125,-9.360915
75.309486,0.083650,-2.996750,-9.169072
75.341986,0.165655,-3.044635,-9.019878
75.376036,0.236585,-3.075761,-9.174609
75.409473,0.156826,-3.044635,-9.086918
75.449629,0.415110,-3.307558,-9.354330
75.475967,0.253046,-3.142502,-9.372736
75.509479,-0.023494,-3.023087,-8.964660
75.542649,-0.075719,-3.018149,-8.998629
75.575988,0.000000,-3.080250,-9.162787
75.609418,0.098914,-3.147141,-9.491553
75.642659,0.001496,-3.015605,-9.526120
75.675993,-0.038758,-3.006177,-9.093802
75.709442,0.176130,-3.384175,-8.914829
75.741868,0.323678,-3.591880,-9.556199
75.776071,0.060755,-3.046431,-9.927014
75.809368,-0.334602,-3.048975,-9.144980
75.841910,-0.232545,-3.029970,-9.084075
75.876042,-0.010325,-3.156868,-9.098441
75.909302,0.013917,-3.364871,-9.162787
75.942701,-0.100410,-3.180661,-9.166379
75.976064,-0.154282,-3.080101,-9.255267
76.009593,-0.204562,-3.089678,-9.236711
76.042820,-0.215037,-2.950959,-9.361064
76.076011,-0.292103,-3.013210,-9.096645
76.109366,-0.178823,-3.111376,-8.968700
76.142795,-0.207704,-3.147290,-8.952389
76.175692,-0.225961,-3.166295,-9.043372
76.209462,-0.158322,-3.101350,-9.769290
76.242779,-0.343879,-2.828850,-9.587175
76.275594,-0.385331,-2.982234,-8.863352
76.309448,-0.082004,-3.341078,-8.891335
76.342667,-0.063449,-3.333596,-9.287889
76.375988,-0.103104,-3.232886,-9.807000
76.409589,-0.402689,-2.855038,-9.671424
76.442463,-0.416606,-2.893646,-9.052500
76.476035,-0.240327,-3.118709,-8.591750
76.508594,-0.024541,-3.403330,-8.694704
76.549018,-0.088140,-3.295138,-9.651371
76.575970,-0.208303,-3.256679,-9.793832
76.609386,-0.430523,-3.249497,-9.581039
76.642652,-0.621766,-2.936294,-9.312879
76.676004,-0.469280,-3.118260,-9.074648
76.709362,-0.314101,-3.331052,-9.302554
76.742633,-0.307516,-3.268801,-9.460277
76.775991,-0.361986,-3.436101,-9.305547
76.809403,-0.383236,-3.381033,-9.544676
76.842661,-0.457159,-3.136965,-9.753428
76.876014,-0.543503,-3.094018,-9.493797
76.909375,-0.365877,-3.280922,-9.150068
76.942660,-0.128094,-3.366966,-9.276666
76.976160,-0.113429,-3.257128,-9.297915
77.009319,-0.178225,-3.209392,-9.033346
77.042708,-0.252597,-3.123348,-8.778355
77.076037,-0.098615,-3.297981,-8.903456
77.109259,-0.046689,-3.111376,-9.261252
77.142715,0.004340,-3.075462,-9.356425
77.175749,-0.122558,-2.912800,-9.300309
77.209368,0.003143,-3.013659,-8.785088
77.242715,0.188700,-3.274188,-8.964810
77.275003,0.210099,-3.436700,-9.196457
77.309430,-0.001048,-3.032215,-9.719758
77.342678,-0.178973,-2.967719,-9.391741
77.375998,-0.249305,-2.946320,-9.072253
77.409660,-0.146949,-2.967869,-9.252723
77.442717,0.065843,-3.147141,-9.520584
77.476000,0.129142,-3.333446,-9.644338
77.509377,-0.012121,-3.063191,-9.793981
77.542415,-0.147847,-3.048975,-9.403413
77.576035,-0.128992,-3.034909,-8.934731
77.609375,-0.140814,-3.010966,-8.942064
77.651755,0.017508,-3.223758,-9.258259
77.676020,0.124952,-3.271344,-9.694469
77.709435,-0.103254,-3.094317,-9.555899
77.742672,-0.289110,-2.991662,-9.151564
77.776033,-0.307965,-2.908161,-8.936677
77.808728,-0.093527,-3.101799,-9.125526
77.842702,0.107294,-3.319230,-9.393537
77.876041,-0.066591,-3.328807,-9.218604
77.909289,-0.222070,-3.151929,-9.174759
77.942700,-0.284471,-2.986724,-9.359418
77.976068,-0.211745,-3.034759,-9.241499
78.009270,-0.124802,-3.391059,-9.133158
78.042727,-0.126748,-3.651737,-8.982767
78.076005,-0.063449,-3.340480,-9.722901
78.109450,-0.349566,-2.960536,-9.298064
78.142700,-0.324127,-2.936743,-8.994140
78.175380,-0.128244,-3.214330,-8.803345
78.209374,0.153833,-3.415002,-9.285494
78.242632,0.073774,-3.321624,-9.393986
78.276039,-0.176429,-3.082645,-9.191070
78.309481,-0.232844,-3.039697,-8.837912
78.342497,-0.241823,-3.123348,-8.892981
78.376041,-0.044893,-3.321624,-9.225488
78.409376,-0.117619,-3.182756,-9.563232
78.442137,-0.167899,-3.278527,-9.336822
78.475996,-0.151588,-3.314591,-9.078538
78.509381,-0.143059,-3.383876,-8.994738
78.541918,-0.363034,-3.374299,-8.975584
78.575268,-0.647505,-3.419341,-9.189124
78.608973,-0.638377,-3.277929,-9.798471
78.641910,-0.765573,-2.959788,-9.928810
78.675268,-0.649151,-3.328658,-8.806637
78.709383,-0.331758,-3.692440,-8.592947
78.753064,-0.177776,-3.450467,-9.549764
78.776004,-0.332058,-3.275684,-9.838126
78.809195,-0.587797,-3.115566,-9.594657
78.842667,-0.628949,-3.113471,-8.885200
78.876031,-0.412416,-3.214181,-8.815915
78.909402,-0.307666,-3.154174,-9.218754
78.942653,-0.353906,-3.132625,-9.137947
78.976039,-0.315597,-3.082495,-9.139892
79.009227,-0.279084,-3.058552,-9.201694
79.042716,-0.229403,-2.831245,-9.566823
79.076002,-0.244517,-2.802663,-9.485717
79.109477,-0.184959,-2.903372,-9.042774
79.142666,-0.010924,-2.984778,-9.021824
79.175085,-0.062700,-2.821967,-9.294922
79.209367,-0.174334,-2.604386,-9.331884
79.242150,-0.165355,-2.771836,-9.080783
79.276037,0.106845,-2.743105,-9.510408
79.309338,0.170743,-2.860275,-9.462073
79.342655,0.230300,-2.908161,-9.454292
79.375991,0.295395,-2.877035,-9.503674
79.409297,0.287614,-2.723951,-9.656759
79.442655,0.224764,-2.752682,-9.585678
79.475992,0.340138,-2.779019,-9.656160
79.509383,0.354354,-2.827055,-9.431396
79.542710,0.340138,-2.877185,-9.441123
79.575971,0.219077,-2.908161,-9.526120
79.609320,0.176279,-2.769143,-9.968615
79.642832,-0.061054,-2.563683,-9.643740
79.676031,-0.028432,-2.779169,-9.146327
79.709375,0.151738,-2.901128,-9.268585
79.742711,-0.001347,-2.962930,-9.466263
79.775425,-0.092030,-2.735623,-9.672770
79.809419,-0.246163,-2.707191,-9.323055
79.843062,-0.137372,-2.884218,-9.250328
79.876043,-0.086793,-2.896040,-9.500681
79.909395,-0.190795,-2.907862,-9.391891
79.942674,-0.250203,-2.960536,-9.201395
79.975985,-0.235239,-2.958142,-9.268136
80.009372,-0.213092,-2.903073,-9.537942
80.042711,-0.254692,-2.982085,-9.227732
80.076121,-0.138420,-3.099405,-9.166678
80.109326,-0.186305,-3.020244,-9.377525
80.142703,-0.274296,-3.048825,-9.414337
80.176030,-0.223118,-3.118260,-9.518937
80.209408,-0.272500,-3.048825,-9.584032
80.242702,-0.294797,-3.101500,-9.295072
80.275285,-0.229403,-3.245157,-9.177303
80.309449,-0.093976,-3.314442,-9.328891
80.342695,-0.367972,-3.005878,-9.360316
80.375270,-0.467036,-3.261917,-8.847639
80.409585,-0.362286,-3.443434,-9.054595
80.442146,-0.334302,-3.261468,-9.639699
80.476042,-0.264120,-3.259223,-9.495593
80.509601,-0.601415,-3.144747,-8.782096
80.541993,-0.450126,-3.171233,-8.632303
80.576044,-0.139767,-3.395847,-9.087966
80.609437,-0.235089,-3.319081,-9.311233
80.642360,-0.379195,-3.278527,-9.023619
80.676117,-0.401791,-3.190238,-8.909142
80.709336,-0.383236,-3.216425,-9.085721
80.742656,-0.349416,-3.266556,-9.121187
80.776109,-0.347022,-3.268801,-9.345950
80.809293,-0.419449,-3.235281,-9.272625
80.842709,-0.336098,-3.235430,-9.247784
80.876570,-0.321882,-3.242613,-9.240452
80.915243,-0.331160,-3.180362,-9.259606
80.942634,-0.293300,-3.139659,-9.443218
80.975998,-0.259481,-3.280922,-9.266041
81.009336,-0.083052,-3.314292,-9.457734
81.042628,0.097866,-3.311898,-9.632666
81.076097,0.089038,-3.345567,-9.475092
81.109336,-0.028881,-3.388814,-8.945655
81.142732,-0.042499,-3.293043,-9.230276
81.175675,-0.057014,-3.139808,-9.631918
81.209245,-0.151888,-3.048975,-9.468059
81.242716,-0.026936,-3.283466,-9.117745
81.276032,0.136025,-3.228696,-9.168474
81.309367,0.100261,-3.094766,-9.159345
81.342808,0.107144,-3.207297,-8.934582
81.375702,0.110736,-3.104343,-9.027809
81.408533,0.092180,-3.032514,-9.286093
81.442815,0.016910,-3.123348,-9.193763
81.475564,0.163260,-3.302620,-9.268585
81.509371,0.189448,-2.934349,-9.655412
81.542677,0.152785,-3.101949,-9.161141
81.575527,0.224165,-3.224057,-8.928596
81.609370,0.325024,-3.252489,-9.412691
81.642525,0.206058,-3.080101,-9.657656
81.675992,0.051627,-3.104193,-9.305696
81.709601,0.090983,-3.164050,-9.200048
81.741957,0.102206,-3.113770,-9.345801
81.776005,0.081406,-3.259672,-9.212169
81.809398,0.087691,-3.293043,-9.350739
81.842366,-0.096969,-3.240219,-9.479432
81.876040,-0.094425,-3.168540,-9.491254
81.909387,-0.116572,-3.209392,-9.001622
81.941847,-0.220424,-3.269399,-8.675251
81.975992,-0.206807,-3.405425,-8.844946
82.009398,-0.272799,-3.223459,-9.357024
82.051849,-0.526594,-2.946021,-9.276067
82.076108,-0.512826,-3.113621,-8.802746
82.109329,-0.353008,-3.226152,-8.784191
82.142654,-0.417803,-3.280922,-8.990548
82.176100,-0.558019,-3.397793,-9.286093
82.209327,-0.688806,-3.342575,-9.567123
82.242701,-0.864038,-3.316387,-9.267837
82.276102,-0.932425,-2.962631,-9.094101
82.309351,-0.849673,-2.979391,-9.004764
82.342711,-0.703023,-3.165846,-9.333081
82.376063,-0.588097,-3.263713,-9.585229
82.409173,-0.554876,-3.144148,-9.773630
82.441917,-0.628351,-2.940933,-9.592711
82.475930,-0.606802,-2.826456,-9.358071
82.509374,-0.445038,-2.934049,-9.299112
82.542705,-0.407328,-2.876586,-9.463570
82.575318,-0.374257,-2.814335,-9.654364
82.609391,-0.370965,-2.738017,-9.501280
82.642680,-0.198875,-2.690281,-9.506667
82.676045,-0.112980,-2.482576,-9.252274
82.708478,0.016760,-2.645388,-8.906748
82.742653,0.067190,-2.700457,-8.937275
82.776038,0.093228,-2.752682,-9.579992
82.809331,-0.025589,-2.577899,-9.827352
82.842653,-0.166852,-2.429753,-9.558743
82.876029,-0.068985,-2.465966,-9.117894
82.909447,0.137971,-2.590469,-9.055942
82.942699,0.248407,-2.573559,-9.322456
82.975870,0.165954,-2.846059,-9.246887
83.009448,0.053722,-2.721556,-9.451299
83.042649,-0.047736,-2.563683,-9.547968
83.075168,-0.150840,-2.518192,-9.503674
83.109466,-0.087391,-2.563533,-9.632068
83.144310,-0.019903,-2.723801,-9.703148
83.175965,0.040254,-2.809846,-9.764651
83.209328,0.017808,-2.754927,-9.673968
83.242203,-0.124204,-2.594659,-9.548866
83.276034,-0.053123,-2.719162,-9.287589
83.309434,-0.112831,-2.688036,-9.290582
83.342754,-0.068536,-2.659454,-9.404760
83.375726,0.050430,-2.661699,-9.587624
83.409373,-0.014964,-2.747893,-9.279958
83.442686,-0.054021,-2.764653,-9.201545
83.475817,-0.144555,-2.879430,-9.243146
83.509371,-0.105947,-2.850399,-9.713623
83.542697,-0.161315,-2.735473,-9.888705
83.575059,-0.356449,-2.745350,-9.295670
83.609366,-0.399397,-2.781264,-9.092904
83.642455,-0.342533,-2.910406,-9.063724
83.676036,-0.223118,-2.862221,-9.707787
83.709312,-0.320236,-2.962631,-9.574904
83.743355,-0.520309,-2.871798,-9.409848
83.775998,-0.593185,-2.929410,-9.078389
83.809364,-0.606952,-3.012911,-9.138246
83.843267,-0.670550,-3.309204,-9.476140
83.875626,-0.660524,-3.079353,-9.941978
83.909373,-0.676835,-3.072469,-9.535847
83.942800,-0.461349,-3.165996,-9.363907
83.975622,-0.310808,-3.230791,-8.929644
84.008849,-0.201569,-3.577514,-8.907047
84.042717,-0.280132,-3.479199,-9.369145
84.075611,-0.497264,-3.273439,-9.368995
84.109465,-0.579268,-3.204304,-9.073600
84.142692,-0.525396,-3.185449,-8.750222
84.175986,-0.306469,-3.283466,-8.900912
84.209437,-0.213690,-3.335990,-9.093503
84.245843,-0.203814,-3.283316,-9.334727
84.275993,-0.312604,-3.326413,-9.006111
84.309442,-0.328466,-3.357539,-8.858114
84.342715,-0.375753,-3.321624,-8.908843
84.375989,-0.443392,-3.214031,-9.043372
84.409442,-0.531532,-3.304715,-9.084973
84.442714,-0.521955,-3.335691,-9.300010
84.475986,-0.609795,-3.318931,-9.138395
84.509440,-0.595729,-3.290199,-9.329490
84.542214,-0.565800,-3.194578,-9.431995
84.576017,-0.495917,-3.180362,-9.263796
84.609368,-0.454615,-3.187544,-9.110412
84.642718,-0.379345,-3.185150,-9.214713
84.676106,-0.350464,-3.101500,-9.223991
84.709310,-0.384732,-3.017849,-9.145429
84.742685,-0.358245,-3.180661,-8.961218
84.775675,-0.233144,-3.189939,-9.480928
84.809279,-0.285369,-3.170635,-9.725295
84.842773,-0.420796,-3.134870,-9.351487
84.875964,-0.527192,-3.194727,-9.027510
84.909323,-0.388323,-3.295287,-9.061928
84.942788,-0.251849,-3.242463,-9.521781
84.975380,-0.346723,-3.065436,-9.577747
85.009379,-0.507739,-2.991512,-9.251974
85.042874,-0.519710,-3.187694,-8.836266
85.075994,-0.357946,-3.300076,-9.001921
85.109445,-0.417803,-3.194727,-9.203191
85.142942,-0.527940,-3.127687,-9.398026
85.175640,-0.507439,-3.218520,-9.311832
85.209352,-0.434713,-3.223309,-9.404161
85.242665,-0.479905,-3.311898,-9.208728
85.275329,-0.370217,-3.524840,-8.990099
85.309331,-0.342084,-3.486381,-9.377076
85.342021,-0.539014,-3.213732,-9.264395
85.376741,-0.502950,-3.369361,-9.077491
85.409355,-0.469131,-3.491170,-9.122683
85.442633,-0.471974,-3.534117,-9.304350
85.475995,-0.645859,-3.357090,-9.337271
85.509473,-0.703920,-3.366667,-9.275768
85.542673,-0.709756,-3.340330,-9.180146
85.575990,-0.687160,-3.479348,-8.843000
85.609439,-0.595130,-3.577215,-8.978278
85.642663,-0.617876,-3.278078,-9.492301
85.676033,-0.611890,-3.280622,-9.375131
85.709487,-0.549339,-3.381182,-9.132709
85.742662,-0.397601,-3.548782,-8.899565
85.775244,-0.348069,-3.536811,-9.056840
85.809375,-0.406281,-3.469621,-9.196008
85.842309,-0.488135,-3.433857,-9.132410
85.876038,-0.578071,-3.357389,-8.985161
85.909391,-0.352259,-3.539056,-9.114153
85.942400,-0.262174,-3.522445,-9.048759
85.976041,-0.303476,-3.589336,-8.989351
86.009378,-0.388024,-3.436251,-9.107419
86.042414,-0.457608,-3.309503,-9.072253
86.076039,-0.466587,-3.424429,-8.909891
86.109424,-0.348369,-3.553571,-8.817860
86.142225,-0.341784,-3.627495,-9.202592
86.176037,-0.474518,-3.502842,-9.512353
86.209420,-0.657830,-3.335541,-9.330238
86.242181,-0.618175,-3.474410,-9.033496
86.276039,-0.509983,-3.550877,-9.108766
86.309116,-0.517465,-3.622706,-9.094550
86.342229,-0.523900,-3.617768,-9.159196
86.376193,-0.651396,-3.352301,-9.270381
86.409454,-0.677883,-3.362028,-9.031700
86.442617,-0.605605,-3.541450,-8.882805
86.475999,-0.558019,-3.584398,-9.090210
86.509334,-0.559216,-3.447923,-9.405658
86.542693,-0.689704,-3.414403,-9.268435
86.575995,-0.820343,-3.416947,-8.904204
86.609379,-0.767968,-3.486381,-8.886846
86.642664,-0.856107,-3.438346,-9.122084
86.676030,-0.895463,-3.457201,-9.464318
86.709369,-1.129056,-3.349608,-9.282801
86.742531,-1.012634,-3.357090,-9.013743
86.776036,-0.903843,-3.359634,-8.902708
86.809367,-1.005750,-3.534117,-8.774763
86.842666,-0.775001,-3.469322,-9.341162
86.876034,-0.720232,-3.342575,-9.526869
86.909330,-0.796549,-3.254285,-9.097393
86.942699,-0.799842,-3.398092,-8.588458
86.976038,-0.750908,-3.534267,-8.700241
87.009311,-0.766920,-3.426225,-9.417480
87.042700,-0.915216,-3.301722,-9.607825
87.076037,-0.986297,-3.304116,-9.450850
87.109307,-0.927487,-3.254285,-9.132260
87.142761,-0.858801,-3.299777,-9.086170
87.176084,-0.869725,-3.215977,-9.174759
87.209367,-0.938261,-3.146542,-9.235214
87.243114,-0.975672,-2.950510,-9.281005
87.275753,-0.956368,-2.938688,-9.077491
87.309444,-0.823635,-2.938688,-9.200348
87.342732,-0.689106,-2.933900,-9.275468
87.375343,-0.587349,-2.962781,-9.176255
87.409449,-0.412566,-2.914895,-9.430199
87.442425,-0.350015,-2.886463,-9.245390
87.475991,-0.449527,-2.936593,-9.103080
87.509380,-0.483945,-2.938838,-9.244492
87.546213,-0.678930,-2.630124,-9.736518
87.575992,-0.748364,-2.637158,-9.720507
87.609375,-0.585553,-2.553657,-9.742654
87.642664,-0.482150,-2.723651,-9.385456
87.676032,-0.340587,-2.836033,-9.443667
87.709373,-0.310359,-2.726046,-9.581937
87.742703,-0.278785,-2.711680,-9.629374
87.775601,-0.388323,-2.628029,-9.436933
87.809373,-0.323378,-2.637607,-9.472099
87.842659,-0.445337,-2.508465,-9.444715
87.876031,-0.507290,-2.424964,-9.237459
87.909536,-0.490380,-2.420175,-9.182391
87.942237,-0.281927,-2.537346,-9.318715
87.976044,-0.143059,-2.532557,-9.570564
88.009726,-0.204263,-2.341314,-9.406107
88.042666,-0.081555,-2.365256,-9.486166
88.076035,-0.029031,-2.532857,-9.287141
88.109617,0.043995,-2.568621,-9.427506
88.142017,0.011672,-2.503975,-9.516244
88.176037,0.073175,-2.554106,-9.697162
88.209543,0.124952,-2.537346,-9.830494
88.242743,0.126598,-2.499187,-9.763604
88.276031,0.084848,-2.563982,-9.231024
88.309420,0.262025,-2.984928,-9.090659
88.342395,0.253495,-3.147290,-9.413439
88.376044,0.130788,-2.998545,-9.990762
88.409364,-0.258134,-2.661400,-9.767794
88.442503,-0.323079,-2.625785,-9.273673
88.476040,-0.185707,-2.618752,-9.164583
88.509401,0.035765,-2.924921,-9.140790
88.542659,0.289709,-3.271644,-9.243295
88.576027,0.139617,-3.006177,-9.481527
88.614148,-0.264120,-2.802812,-9.225338
88.641827,-0.297939,-2.723951,-9.177901
88.676003,-0.244517,-2.601992,-9.248982
88.709380,-0.155629,-2.783808,-9.090360
88.742700,-0.009577,-2.920132,-9.131811
88.776000,-0.118667,-2.960686,-9.221447
88.809334,-0.298538,-2.738167,-9.349991
88.842843,-0.530933,-2.529864,-9.483921
88.875966,-0.664864,-2.439030,-9.466263
88.909072,-0.709756,-2.484671,-9.084225
88.942825,-0.611890,-2.544529,-9.078389
88.975858,-0.281628,-2.725896,-9.803858
89.009433,-0.317692,-2.467612,-9.981035
89.042844,-0.314549,-2.577899,-9.405059
89.076002,-0.285968,-2.609174,-9.180146
89.109445,-0.235089,-2.508614,-9.454441
89.142455,-0.239578,-2.525225,-9.700604
89.175993,-0.342832,-2.503676,-9.644338
89.209867,-0.295545,-2.501431,-9.383361
89.242654,-0.176728,-2.558894,-9.324701
89.276069,-0.109838,-2.537495,-9.326347
89.309508,-0.153085,-2.511009,-9.518040
89.342662,-0.240776,-2.568322,-9.595405
89.375987,-0.231198,-2.499037,-9.588222
89.409448,-0.169396,-2.391444,-9.544377
89.442165,-0.179721,-2.315126,-9.245689
89.475994,-0.071829,-2.429902,-9.289984
89.509379,-0.064346,-2.405959,-9.533752
89.542586,-0.036962,-2.393838,-9.636258
89.576033,-0.026786,-2.200051,-9.889453
89.609378,-0.050280,-2.169075,-9.707937
89.642033,0.138120,-2.241053,-9.698808
89.675999,0.154581,-2.276967,-9.450102
89.709370,-0.080059,-2.064324,-9.156203
89.748962,-0.557719,-1.516482,-9.333231
89.776065,-0.403886,-1.568857,-9.644638
89.809300,-0.341635,-1.834323,-9.684742
89.842653,-0.106695,-2.001624,-9.995401
89.876017,0.079909,-2.030356,-10.036403
89.909332,0.179871,-2.030655,-9.781860
89.942700,0.045491,-2.061781,-9.501280
89.976000,-0.200970,-2.090362,-9.468209
90.009364,-0.295994,-2.190623,-9.531358
90.042699,-0.554876,-1.972743,-9.861620
90.076046,-0.575527,-1.841207,-9.704046
90.109363,-0.438454,-1.846295,-9.571013
90.141930,-0.488435,-2.281606,-8.981420
90.176039,-0.340887,-2.319765,-9.371838
90.209367,-0.384882,-2.037239,-9.902772
90.242360,-0.450126,-2.068365,-9.836629
90.276037,-0.408675,-2.051754,-9.697462
90.309328,-0.483047,-2.109217,-9.456985
90.342697,-0.473470,-2.145132,-9.461624
90.376033,-0.535572,-2.082731,-9.679804
90.409400,-0.557869,-1.908097,-9.801912
90.442704,-0.668904,-1.932190,-9.480330
90.476000,-0.641070,-2.054149,-9.422717
90.510075,-0.569242,-2.015840,-9.646733
90.542667,-0.615631,-1.979926,-9.771385
90.575988,-0.661272,-1.838813,-9.740858
90.609567,-0.730707,-1.793471,-9.490655
90.642665,-0.795951,-1.884304,-9.433940
90.675990,-0.630296,-1.853178,-9.721404
90.709399,-0.528539,-1.944012,-9.866109
90.742668,-0.575078,-1.917824,-9.534351
90.776035,-0.496815,-1.877271,-9.473745
90.809353,-0.429026,-2.040082,-9.360765
90.845791,-0.475865,-1.910492,-9.872693
90.875998,-0.617277,-1.783744,-9.814482
90.909466,-0.514772,-1.781499,-9.798919
90.942665,-0.480653,-1.982619,-9.220250
90.975988,-0.348069,-1.999379,-9.546173
91.009363,-0.327868,-2.049360,-9.878230
91.042664,-0.432318,-1.924857,-9.927163
91.076037,-0.553230,-1.910641,-9.567571
91.109329,-0.515520,-2.023173,-9.318566
91.142709,-0.576275,-1.877271,-9.424363
91.175997,-0.435162,-1.984864,-9.673818
91.209366,-0.323229,-2.187930,-9.875836
91.242707,-0.337295,-2.300461,-9.696863
91.275781,-0.475715,-2.171319,-9.468807
91.309365,-0.676386,-2.013595,-9.246288
91.342702,-0.613686,-1.968104,-9.506068
91.375542,-0.451173,-2.018085,-9.956045
91.409368,-0.279533,-2.140343,-9.710480
91.442870,-0.456261,-2.075847,-9.277414
91.475747,-0.474518,-2.138098,-9.136600
91.509437,-0.357796,-2.267091,-9.570415
91.542729,-0.418102,-1.946256,-10.137412
91.575661,-0.509385,-1.853178,-9.858627
91.609375,-0.584206,-2.039933,-9.364805
91.642710,-0.663666,-2.083030,-9.100386
91.675631,-0.532879,-1.915430,-9.684443
91.709383,-0.518962,-1.826841,-9.851594
91.742747,-0.705716,-1.805442,-9.602588
91.776031,-0.710205,-1.520971,-9.590616
91.809366,-0.587947,-1.430437,-9.185383
91.842198,-0.570888,-1.832079,-9.252274
91.875420,-0.577921,-1.795715,-9.921477
91.909356,-0.780238,-1.458570,-9.732478
91.946928,-0.637030,-1.592650,-9.742803
91.975995,-0.651695,-1.329578,-9.905465
92.009373,-0.622964,-1.303390,-9.685191
92.042240,-0.609346,-1.494484,-9.864463
92.076032,-0.749861,-1.374919,-9.884964
92.109371,-0.416456,-1.336611,-10.227946
92.142393,-0.486789,-1.322395,-9.903670
92.176032,-0.516119,-1.635897,-9.442769
92.209379,-0.449677,-1.614348,-9.609322
92.242474,-0.855359,-1.190859,-9.618450
92.276022,-0.769614,-1.140579,-10.023833
92.309434,-0.766621,-1.336611,-9.875686
92.342636,-0.761383,-1.513788,-9.497987
92.375204,-0.397003,-1.786437,-9.642243
92.409369,-0.559814,-1.504361,-9.572210
92.442733,-0.719633,-1.255504,-9.578645
92.475975,-0.648852,-1.456774,-9.075994
92.509369,-0.458955,-1.413677,-9.394285
92.542663,-0.061803,-1.413677,-9.667234
92.576396,0.266364,-1.784342,-10.017548
92.609401,0.293001,-2.838427,-10.158661
92.642802,0.450725,-3.237675,-10.212084
92.676089,-0.453418,-3.431013,-9.686538
92.709404,-1.320000,-2.866411,-9.473446
92.742715,-1.002458,-2.361815,-10.280171
92.775993,0.231348,-3.106438,-9.791288
92.808718,0.960857,-3.585445,-9.030653
92.842704,1.162576,-3.638718,-8.258794
92.875982,1.611206,-4.090490,-8.686623
92.909300,1.272564,-3.772199,-8.941166
92.942658,1.055881,-3.458997,-8.747528
92.976042,0.887233,-3.808263,-8.221234
93.009314,0.775599,-3.994569,-8.296654
93.042631,0.709158,-3.805420,-8.758602
93.076016,0.369319,-3.302470,-9.756421
93.109279,-0.022596,-3.032215,-9.495294
93.142623,0.030677,-3.269399,-8.935480
93.175952,0.187353,-3.683162,-8.659089
93.209310,0.001796,-3.491769,-8.713559
93.242608,-0.169396,-2.989268,-9.394135
93.275941,-0.334901,-3.084440,-9.776024
93.309269,-0.337744,-3.134720,-9.747293
93.342519,-0.246911,-3.170934,-9.313777
93.375931,0.018406,-3.106737,-9.102780
93.409098,-0.082304,-2.740860,-9.022572
93.442606,-0.185258,-2.877185,-8.799005
93.475932,-0.171341,-2.946320,-9.207680
93.509273,-0.184809,-2.974902,-9.293874
93.542611,-0.252747,-3.041942,-9.201395
93.575282,-0.394160,-2.967869,-8.925603
93.609281,-0.299735,-2.888857,-9.261552
93.642604,-0.249156,-2.716618,-9.497688
93.675930,-0.112831,-2.893646,-9.300159
93.709283,-0.018107,-3.046730,-9.248982
93.742604,-0.043546,-3.044336,-9.328143
93.775957,-0.142909,-2.793086,-9.601690
93.809269,-0.203514,-2.719012,-9.516244
93.842624,-0.043696,-2.702402,-9.497838
93.875986,0.199624,-2.872247,-9.485567
93.909455,0.250502,-2.855487,-9.547220
93.942316,0.250951,-2.865064,-9.587773
93.975996,0.052525,-2.872247,-9.365254
94.009382,0.030527,-2.762110,-9.520883
94.042438,0.003741,-2.743105,-9.475691
94.076050,0.012420,-2.681003,-9.389646
94.113263,0.089486,-2.750437,-9.233419
94.142856,0.111484,-2.728889,-9.283399
94.175949,0.205160,-2.712278,-9.322905
94.209321,0.021549,-2.838876,-9.140939
94.242479,-0.065394,-2.690431,-9.469256
94.275992,-0.052375,-2.637756,-9.571911
94.309367,-0.027684,-2.664243,-9.428254
94.342489,0.133332,-2.669181,-9.304649
94.376036,0.165655,-2.647633,-9.414187
94.409382,0.187503,-2.695369,-9.447408
94.442655,0.207854,-2.781563,-9.351637
94.476037,0.206507,-2.745649,-9.449653
94.509381,0.160866,-2.724100,-9.421520
94.542706,0.092030,-2.702552,-9.458033
94.575651,0.067190,-2.638056,-9.365105
94.609413,0.149044,-2.659454,-9.421520
94.642806,0.173436,-2.654816,-9.251526
94.675992,0.128244,-2.681153,-9.268884
94.709423,0.261576,-2.815083,-9.248233
94.742668,0.234191,-2.743255,-9.353732
94.776065,0.209799,-2.602141,-9.511755
94.809448,0.184959,-2.458783,-9.416282
94.842664,0.345526,-2.719461,-9.271278
94.875152,0.377848,-2.860575,-9.170569
94.909442,0.416606,-2.872396,-9.447408
94.942673,0.249604,-2.728889,-9.456387
94.976077,0.113130,-2.590170,-9.409997
95.009451,0.106246,-2.575804,-9.433940
95.042665,0.174334,-2.690730,-9.342359
95.076058,0.268609,-2.755226,-9.446510
95.109371,0.249006,-2.740860,-9.403712
95.142249,0.292552,-2.791140,-9.455938
95.176043,0.176579,-2.652272,-9.547968
95.209094,0.097118,-2.700157,-9.271578
95.242630,0.151588,-2.597502,-9.220699
95.275993,0.215935,-2.666787,-9.427955
95.309306,0.078712,-2.642844,-9.336223
95.342659,0.218778,-2.702552,-9.468657
95.375995,0.241673,-2.755226,-9.389496
95.409370,0.194835,-2.743255,-9.251376
95.442776,0.132883,-2.736072,-9.266340
95.475968,0.091282,-2.573260,-9.601391
95.509324,0.112831,-2.621146,-9.608424
95.542660,0.137821,-2.760015,-9.287889
95.576037,0.244666,-2.815083,-9.224590
95.609445,0.220574,-2.652421,-9.408800
95.642053,0.108192,-2.621295,-9.407603
95.675987,0.121809,-2.688186,-9.347746
95.709585,0.176279,-2.707490,-9.306594
95.742669,0.242272,-2.748043,-9.439627
95.776034,0.162662,-2.671576,-9.359268
95.809480,0.183762,-2.659604,-9.323205
95.842665,0.206807,-2.779169,-9.258409
95.876033,0.177477,-2.688186,-9.402066
95.909377,0.126299,-2.525524,-9.522080
95.942661,0.022746,-2.661998,-9.234167
95.976033,0.159669,-2.714523,-9.318715
96.009382,0.231797,-2.702552,-9.547669
96.042672,0.110287,-2.659454,-9.381266
96.076036,0.109688,-2.685792,-9.326347
96.109330,0.095173,-2.681003,-9.305098
96.142666,0.152037,-2.611718,-9.481227
96.175508,0.099064,-2.575804,-9.434090
96.209370,0.078862,-2.604535,-9.333829
96.242305,0.230749,-2.793535,-9.265293
96.276041,0.213989,-2.697763,-9.475840
96.312479,0.096520,-2.599747,-9.419724
96.342632,0.047437,-2.594958,-9.300758
96.375973,0.147398,-2.709884,-9.280556
96.409308,0.128843,-2.652272,-9.546023
96.442655,0.088589,-2.681003,-9.362411
96.475996,0.071230,-2.650027,-9.307642
96.509363,0.258433,-2.659454,-9.597201
96.542687,0.351811,-2.790991,-9.636856
96.575989,0.221172,-2.707340,-9.478085
96.609211,0.299286,-2.700307,-9.405658
96.642872,0.370067,-2.810145,-9.555450
96.676037,0.160268,-2.815083,-9.163386
96.709191,-0.039655,-2.709884,-8.988603
96.742145,-0.010325,-2.645089,-9.480629
96.776043,-0.149344,-2.647333,-9.431995
96.809322,-0.054021,-2.721706,-9.206333
96.842701,0.113429,-2.726494,-9.233119
96.876041,0.441447,-2.760015,-9.525971
96.909235,0.503848,-3.171533,-9.152612
96.942015,0.336547,-3.135618,-8.920066
96.976105,0.219975,-2.707340,-9.370641
97.009117,0.090983,-2.614113,-9.357622
97.042666,0.228205,-2.757620,-9.461325
97.075991,0.473321,-2.992111,-9.403862
97.109315,0.344777,-2.949014,-9.225937
97.142638,0.408825,-2.755376,-9.382912
97.176039,0.475416,-2.659754,-9.331884
97.209329,0.608448,-2.801166,-9.055643
97.242726,0.735645,-2.941980,-9.353133
97.275991,0.691799,-3.032814,-9.499484
97.309382,0.442793,-2.970562,-9.229678
97.342643,0.383086,-2.841420,-9.213516
97.375969,0.344328,-2.702701,-9.376477
97.409271,0.348818,-2.693124,-9.340563
97.442615,0.274894,-2.657210,-9.355677
97.475999,0.328317,-2.805506,-9.450700
97.509268,0.400744,-3.008571,-9.543180
97.542603,0.241524,-2.881974,-9.382313
97.575933,0.181517,-2.618901,-9.332782
97.609277,0.338492,-2.729038,-9.273673
97.642595,0.390418,-2.870152,-9.230127
97.675942,0.314101,-2.843815,-9.245390
97.709285,0.373210,-2.805506,-9.402366
97.742637,0.326072,-2.745649,-9.450700
97.775933,0.327419,-2.808050,-9.147224
97.809283,0.300184,-2.772285,-9.054296
97.842595,0.294797,-2.688336,-9.429601
97.875944,0.221920,-2.743105,-9.552308
97.909260,0.203963,-2.836632,-9.225039
97.942599,0.312754,-2.755525,-9.104277
97.975606,0.346274,-2.726644,-9.330986
98.009271,0.363034,-2.738466,-9.557845
98.042810,0.299735,-2.731283,-9.455788
98.075957,0.266963,-2.638205,-9.276815
98.109265,0.328317,-2.705245,-9.214115
98.142602,0.411069,-2.784107,-9.361363
98.175950,0.340288,-2.757620,-9.448156
98.209269,0.325024,-2.757620,-9.364656
98.242129,0.305870,-2.721856,-9.357772
98.275929,0.285369,-2.705096,-9.439178
98.309365,0.294647,-2.724100,-9.420023
98.342599,0.193638,-2.676364,-9.361363
98.375936,0.287763,-2.810295,-9.231324
98.409292,0.323827,-2.712129,-9.465066
98.442602,0.292552,-2.719312,-9.446361
98.475391,0.246612,-2.819722,-9.408651
98.509260,0.139018,-2.721706,-9.397727
