time_tick,acc_X_value,acc_Y_value,acc_Z_value
0.075783,0.331309,-0.928235,-9.740559
0.130917,0.360789,-0.940955,-9.866109
0.142902,0.379195,-0.902946,-9.739362
0.173581,0.351661,-0.984800,-9.866109
0.206929,0.364979,-0.907136,-9.865511
0.240235,0.346274,-0.910428,-9.642842
0.273574,0.342084,-1.002159,-9.706889
0.306993,0.372761,-0.927487,-9.723350
0.340371,0.387426,-0.912972,-9.752380
0.374037,0.411518,-0.882145,-9.867306
0.406898,0.354354,-0.997520,-9.662445
0.440263,0.266065,-0.925991,-9.844411
0.473575,0.413015,-0.936765,-9.722302
0.507070,0.423041,-0.840694,-9.873591
0.540324,0.374706,-0.982406,-9.721853
0.573846,0.437556,-0.851169,-9.836031
0.606972,0.426931,-1.071743,-9.834086
0.640848,0.363782,-0.925991,-9.836480
0.673701,0.319488,-0.944846,-9.792335
0.706981,0.366775,-0.916413,-9.795777
0.740653,0.389970,-0.935867,-9.699257
0.773639,0.346723,-0.904442,-9.851145
0.807054,0.376801,-0.899354,-9.862667
0.840299,0.301231,-0.998567,-9.790390
0.874333,0.315896,-0.873616,-9.800566
0.906923,0.367074,-0.843687,-9.707039
0.940438,0.328167,-0.955470,-9.808796
0.973798,0.365727,-0.817649,-9.802212
1.006980,0.385031,-0.865684,-9.738613
1.040756,0.369468,-0.811663,-9.828549
1.073648,0.448779,-0.937513,-9.855634
1.107230,0.350164,-0.870772,-9.717065
1.140379,0.371713,-0.822288,-9.806252
1.173761,0.388922,-0.864188,-9.780364
1.206939,0.345526,-0.878105,-9.752231
1.240248,0.458356,-0.831117,-9.760461
1.273768,0.422891,-0.929133,-9.619498
1.307036,0.328616,-1.207619,-9.497239
1.340293,0.435162,-0.980311,-9.858178
1.373648,0.495318,-1.042413,-9.726343
1.407226,0.542156,-0.978366,-9.855933
1.440293,0.527491,-0.635833,-10.121999
1.474312,0.581812,-0.974325,-9.785152
1.507105,0.543354,-0.977318,-9.568918
1.540784,0.664265,-0.940805,-9.887807
1.573704,0.605306,-1.038522,-9.847853
1.607067,0.596776,-1.077729,-9.697910
1.640654,0.620120,-0.898456,-9.861919
1.673665,0.657681,-1.064710,-9.860273
1.707065,0.602163,-1.032985,-9.774228
1.740546,0.683419,-0.938561,-9.887508
1.773879,0.653191,-0.985399,-9.821516
1.806922,0.607550,-0.945743,-9.655561
1.840301,0.654389,-1.045555,-9.868503
1.873847,0.640921,-0.802984,-9.807000
1.906960,0.616529,-0.854461,-9.729784
1.942104,0.577921,-0.966245,-9.715568
1.973579,0.615332,-0.855060,-9.676212
2.006928,0.592885,-0.900102,-9.819570
2.040315,0.591539,-0.918059,-9.786948
2.073621,0.669652,-0.828274,-9.843663
2.106943,0.632391,-0.904292,-9.743402
2.140324,0.667557,-0.874214,-9.766447
2.174412,0.691201,-0.946043,-9.783656
2.207037,0.641070,-0.939309,-9.750435
2.240256,0.632241,-0.924644,-9.817326
2.273624,0.632391,-1.107059,-9.752680
2.306991,0.679678,-0.946492,-9.841418
2.340351,0.664265,-0.943948,-9.923572
2.374076,0.643914,-1.092244,-9.526869
2.406983,0.662619,-1.003955,-9.837677
2.440323,0.649301,-0.935568,-9.881522
2.473715,0.663666,-0.967591,-9.729784
2.506938,0.577622,-1.000962,-9.701053
2.540243,0.560862,-1.012035,-9.783955
2.573607,0.511779,-0.986297,-9.698958
2.606908,0.530933,-1.108854,-9.777969
2.640385,0.527192,-0.982107,-9.719459
2.673655,0.548441,-1.100624,-9.630870
2.707036,0.502501,-1.029244,-9.719160
2.740233,0.557869,-1.099876,-9.704495
2.773697,0.571486,-0.984202,-9.760312
2.807035,0.456261,-1.000662,-9.755822
2.841361,0.571486,-0.992582,-9.690279
2.873749,0.517316,-0.981658,-9.785601
2.906915,0.497862,-1.059921,-9.723050
2.940450,0.583308,-0.903245,-9.798471
2.973826,0.516268,-0.996023,-9.956643
3.006998,0.419748,-1.080721,-9.628177
3.040245,0.430223,-0.972530,-9.787846
3.073985,0.483945,-0.991983,-9.855634
3.107016,0.386228,-0.956069,-9.712875
3.140441,0.482150,-0.896511,-9.785003
3.173646,0.329065,-0.951879,-9.850846
3.206969,0.434114,-0.878554,-9.767644
3.240330,0.361238,-1.038372,-9.722003
3.273633,0.386378,-0.968489,-9.750285
3.306999,0.399846,-0.928684,-9.799368
3.340239,0.410321,-0.910128,-9.857729
3.373591,0.333704,-0.881247,-9.755523
3.406933,0.293450,-0.855958,-9.746993
3.440228,0.289559,-0.896062,-9.878230
3.473577,0.295844,-0.850421,-9.800117
3.506957,0.269208,-0.938710,-9.796525
3.540280,0.277438,-0.913421,-9.850846
3.573594,0.276391,-0.914019,-9.841418
3.606921,0.250203,-0.934371,-9.790988
3.640227,0.282077,-0.873765,-9.843962
3.673565,0.250951,-0.935119,-9.758665
3.706818,0.203514,-0.937812,-9.714222
3.740212,0.265167,-0.950831,-9.851893
3.773593,0.170443,-0.976121,-9.726492
3.806840,0.111185,-0.946192,-9.726043
3.840257,0.166702,-0.942900,-9.744449
3.873592,0.138270,-0.947838,-9.721554
3.906891,0.165954,-0.892022,-9.740858
3.940362,0.114178,-0.908782,-9.816428
3.973619,0.101458,-0.955919,-9.709583
4.006948,0.189448,-0.885138,-9.705692
4.040243,0.228654,-0.869126,-9.830943
4.073667,0.254094,-0.874364,-9.834834
4.106941,0.140515,-0.952178,-9.860273
4.140269,0.196032,-0.938261,-9.788444
4.173735,0.256488,-0.899055,-9.810891
4.206992,0.195733,-0.843388,-9.806102
4.240531,0.229403,-0.868079,-9.850247
4.273761,0.293599,-0.890974,-9.817026
4.306980,0.209650,-0.894117,-9.803409
4.340287,0.156377,-0.949335,-9.782309
4.373750,0.224614,-0.884390,-9.799069
4.406992,0.286866,-0.897708,-9.822563
4.440646,0.276839,-0.843088,-9.840670
4.473649,0.263671,-0.826179,-9.800416
4.507434,0.247509,-0.897858,-9.806402
4.540414,0.212643,-0.974026,-9.771984
4.573692,0.190346,-0.943798,-9.764950
4.606993,0.245115,-0.945444,-9.841268
4.641553,0.172538,-0.942751,-9.739511
4.673654,0.232395,-0.903095,-9.804307
4.707419,0.293899,-0.837402,-9.844261
4.740264,0.231348,-0.883642,-9.838724
4.773684,0.229403,-0.992133,-9.793083
4.807485,0.244217,-0.867630,-9.811340
4.840276,0.226110,-0.940057,-9.813584
4.873641,0.130189,-0.973278,-9.689530
4.907043,0.180769,-0.908033,-9.780813
4.940262,0.209350,-0.847129,-9.819271
4.973773,0.233443,-0.845034,-9.859375
5.041917,0.103703,-0.894117,-9.802212
5.079891,0.190346,-0.906537,-9.799967
5.106950,0.123007,-0.916563,-9.723350
5.140252,0.186455,-0.835307,-9.749837
5.173660,0.249455,-0.840245,-9.886311
5.206974,0.145603,-0.886934,-9.792634
5.240443,0.245863,-0.887233,-9.864463
5.274587,0.151888,-0.871969,-9.778119
5.307002,0.275343,-0.868378,-9.755673
5.340383,0.175830,-0.897708,-9.847104
5.373677,0.222220,-0.847278,-9.875537
5.407146,0.136025,-0.886335,-9.770338
5.440533,0.190645,-0.857604,-9.802212
5.473703,0.081855,-0.772307,-9.702400
5.507226,0.184809,-0.908033,-9.785152
5.541097,0.178225,-0.927038,-9.665737
5.573669,0.203963,-0.914318,-9.854437
5.607767,0.244816,-0.929881,-9.916389
5.640654,0.260379,-0.805229,-9.850846
5.674203,0.317991,-0.881996,-9.811639
5.707618,0.305421,-0.873167,-9.887508
5.740438,0.281628,-0.954273,-9.841418
5.773718,0.263222,-0.822737,-9.793083
5.807163,0.248407,-0.929283,-9.769290
5.842640,0.304224,-0.855359,-9.899928
5.873834,0.301830,-0.858951,-9.921776
5.906977,0.304523,-0.862243,-9.834534
5.940496,0.196032,-0.863141,-9.707188
5.973659,0.252448,-0.915366,-9.718412
6.006955,0.265317,-0.880499,-9.834534
6.040304,0.283124,-0.889328,-9.853090
6.074321,0.164009,-0.897858,-9.729635
6.119245,0.265766,-0.950532,-9.782608
6.140353,0.154581,-0.964150,-9.817625
6.174228,0.147698,-0.862542,-9.782758
6.206941,0.100710,-0.867779,-9.708834
6.240571,0.204412,-0.844884,-9.714222
6.274135,0.159669,-0.901000,-9.809095
6.308482,0.116273,-0.863290,-9.767943
6.340242,0.210398,-0.887233,-9.809245
6.373772,0.141562,-0.870623,-9.798620
6.408422,0.151888,-0.859399,-9.808048
6.441078,0.170743,-0.904592,-9.812387
6.474477,0.152337,-0.937513,-9.803858
6.506916,0.227308,-0.939309,-9.825556
6.540648,0.156527,-0.916114,-9.754625
6.574289,0.241673,-0.859848,-9.809843
6.606996,0.279234,-0.886036,-9.830344
6.641669,0.282676,-0.854461,-9.830644
6.674508,0.334003,-0.902946,-9.877931
6.707380,0.330262,-0.844286,-9.930306
6.741622,0.295844,-0.913121,-9.675314
6.773993,0.315148,-0.957116,-9.802062
6.807452,0.313502,-0.873616,-9.776323
6.841120,0.304224,-1.007845,-9.748041
6.875024,0.337594,-0.883642,-9.854437
6.907790,0.362735,-0.846381,-9.816877
6.940190,0.334901,-1.194749,-9.818074
6.973691,0.317842,-1.151802,-9.741157
7.008161,0.324426,-1.024456,-9.689231
7.040205,0.367972,-0.909679,-9.856532
7.074957,0.363333,-0.961157,-9.933448
7.106891,0.310210,-1.001411,-9.847703
7.140660,0.259780,-1.094040,-9.654065
7.174549,0.322929,-1.088802,-9.677858
7.220115,0.340138,-1.125165,-9.700305
7.240223,0.257536,-1.068151,-9.562633
7.273993,0.393262,-0.932425,-9.833786
7.306850,0.401642,-1.042413,-9.921776
7.341559,0.484694,-0.763778,-9.843363
7.374091,0.417803,-1.014130,-9.871646
7.408179,0.479306,-1.007546,-9.647481
7.441774,0.492176,-1.205673,-9.450102
7.474137,0.535572,-0.985698,-9.810442
7.508346,0.631793,-0.880649,-9.897085
7.542924,0.606054,-1.283637,-9.699557
7.574755,0.655286,-1.071294,-9.672471
7.608208,0.725768,-1.164372,-9.826154
7.644374,0.673094,-1.122023,-9.704944
7.673851,0.656633,-1.228120,-9.616056
7.707069,0.590341,-1.561674,-9.649875
7.741527,0.557270,-1.221086,-9.930007
7.774126,0.450575,-1.463508,-9.744449
7.808845,0.457758,-1.340651,-9.924620
7.840814,0.483945,-1.243084,-9.728587
7.875283,0.401642,-1.338107,-9.459230
7.910371,0.433516,-1.546709,-9.711678
7.941143,0.449527,-1.174996,-9.917736
7.975707,0.483945,-1.087306,-9.788893
8.007178,0.422292,-1.170956,-9.643590
8.040505,0.390568,-1.190260,-9.717514
8.077511,0.291804,-1.202830,-9.648379
8.107275,0.215336,-1.239493,-9.520584
8.141527,0.109539,-1.181880,-9.420472
8.175117,0.171042,-0.855060,-9.415684
8.212477,0.151289,-0.676536,-9.970410
8.240907,0.254393,-0.502950,-10.361278
8.274017,0.287913,-0.414511,-10.443731
8.308204,0.152486,-0.869725,-10.235578
8.340308,0.300483,-1.079225,-10.052115
8.374706,0.592885,-1.542669,-10.054809
8.407498,0.116721,-1.105412,-9.537792
8.443010,0.133631,-1.140130,-9.523726
8.474522,0.071529,-1.095536,-9.592711
8.508107,0.218479,-1.089550,-9.644787
8.542731,0.315597,-1.046453,-9.959486
8.574503,0.154880,-0.841742,-10.010066
8.608147,0.217282,-0.918209,-9.849948
8.641217,0.365428,-1.067253,-9.786349
8.677656,0.370217,-1.032836,-9.777969
8.708392,0.509385,-1.175445,-9.649127
8.741729,0.617277,-1.371178,-9.690877
8.774766,0.592287,-1.255355,-9.666186
8.808476,0.583458,-1.071294,-9.700155
8.841560,0.559515,-1.183975,-9.655262
8.875745,0.292851,-1.001111,-9.763304
8.909470,0.141113,-1.134443,-9.633863
8.942130,-1.679293,0.423639,-9.638053
8.975788,0.370217,-1.848839,-9.451299
9.008106,0.582560,-1.026850,-9.838724
9.041851,0.383236,-1.052140,-9.820767
9.075370,0.631493,-1.349031,-9.650773
9.107809,0.686711,-1.262687,-9.777072
9.140753,0.797597,-1.242036,-9.948113
9.174588,0.616978,-1.464556,-9.622191
9.208552,0.566249,-1.556885,-9.476289
9.241576,0.418851,-1.494484,-9.420023
9.275113,0.499209,-1.401257,-9.669927
9.308681,0.266364,-1.511244,-9.432444
9.341549,0.355402,-1.621381,-9.726043
9.374291,0.257685,-1.600431,-9.544826
9.408557,0.191693,-1.638441,-9.684892
9.444119,0.251400,-1.413228,-9.878230
9.474903,0.077964,-1.300846,-9.483472
9.507650,0.324276,-1.540275,-9.744150
9.541235,0.452820,-1.019667,-9.945719
9.574739,0.436658,-1.154346,-9.606030
9.608210,0.531532,-1.160331,-9.740559
9.641749,0.789067,-1.016525,-9.993006
9.674921,0.861195,-1.217196,-10.012011
9.708354,0.622664,-1.364444,-9.697312
9.741668,0.700179,-1.376416,-9.682348
9.774765,0.651396,-0.959810,-9.693571
9.808433,0.577771,-1.052439,-9.614859
9.841261,0.535273,-1.126213,-9.274870
9.875669,0.938112,-1.158685,-9.697462
9.908406,0.861494,-0.898606,-9.271278
9.941634,1.050643,-1.040318,-9.693870
9.976332,1.142524,-0.777844,-9.484520
10.008215,1.259096,-0.535722,-9.884964
10.042110,1.147312,-0.902497,-9.793532
10.075242,0.970435,-0.721429,-10.041341
10.108259,0.912523,-0.585403,-9.967866
10.142069,0.745671,-0.621617,-9.915940
10.174772,0.662769,-0.446086,-10.201459
10.208827,0.552332,-0.265317,-10.170483
10.242256,0.499957,-0.406430,-9.620096
10.275391,0.950233,-1.058574,-9.609771
10.307124,0.789815,-0.525546,-9.753578
10.340794,0.732502,-0.297041,-9.848900
10.373798,0.760635,-0.827077,-9.499035
10.406970,0.839198,-0.825281,-9.751632
10.440381,0.984800,-0.562209,-9.818672
10.473779,0.992432,-1.093740,-9.724397
10.520748,2.124631,-1.241438,-9.576700
10.540406,1.015776,-0.551883,-9.503973
10.573849,1.558831,-0.649001,-9.718262
10.607257,1.427893,-0.733250,-9.501130
10.640737,1.108256,-0.700628,-9.407005
10.673628,1.198790,-0.817799,-9.645984
10.707017,1.151652,-0.468981,-9.677110
10.740451,1.065458,-0.423041,-9.930905
10.774038,1.041814,-0.835606,-9.778867
10.807151,0.855658,-0.280581,-10.024581
10.840283,0.904592,-0.450276,-10.149533
10.873753,0.638078,-0.687609,-9.418527
10.907020,0.813908,-0.521506,-10.123495
10.940437,0.828274,-0.657830,-9.824209
10.974409,0.539164,-0.964598,-9.811190
11.006985,0.794155,-0.989140,-9.587474
11.040308,0.934071,-0.663816,-9.717663
11.074157,1.340202,-0.362735,-10.027275
11.107043,0.990786,-0.543204,-9.638353
11.140369,1.183077,-0.619522,-9.689530
11.173688,1.010389,-0.599470,-9.620994
11.206988,1.041216,-0.875561,-9.462672
11.240285,1.201932,-0.783082,-9.647181
11.273611,1.499871,-0.847877,-10.103592
11.306914,1.476228,-0.931078,-9.618151
11.340224,1.569006,-1.157039,-9.606479
11.373597,1.504959,-0.975073,-9.829147
11.406907,1.361601,-1.431036,-9.598398
11.440389,1.655051,-1.076831,-9.812687
11.473600,1.493437,-1.329578,-9.945869
11.507005,1.337509,-1.476228,-10.079799
11.540290,1.410385,-1.084014,-9.761658
11.573569,1.096135,-1.045705,-9.335775
11.606989,1.400059,-0.642866,-9.397278
11.645506,1.303839,-0.398050,-9.963976
11.673600,1.304138,-0.166403,-9.797722
11.706913,0.710056,-1.358608,-9.450700
11.740231,0.797298,-1.416819,-9.884366
11.773611,0.941254,-1.229766,-10.152825
11.806945,0.695840,-0.677134,-9.602887
11.840322,1.812475,-1.010389,-9.900976
11.873559,0.721878,-0.901449,-9.490655
11.906982,0.724272,-1.037624,-9.308240
11.940440,0.836354,-1.326585,-9.802960
11.973712,0.794005,-1.357262,-9.648528
12.006978,0.856257,-1.354269,-9.709433
12.040391,0.981658,-1.110201,-9.896936
12.073696,0.767070,-1.415173,-9.568170
12.106990,0.975223,-1.212557,-9.707937
12.140429,1.270918,-1.105412,-9.467610
12.173671,1.073987,-1.492239,-9.590317
12.206978,1.058873,-1.654602,-9.983429
12.241311,0.993330,-1.511094,-9.981633
12.273597,1.098080,-1.627966,-9.621144
12.306938,0.967591,-1.716704,-9.092754
12.340275,1.030441,-1.415323,-9.101134
12.373647,1.214502,-0.823036,-9.573408
12.406978,1.038971,-0.665911,-9.726642
12.440296,0.774253,-0.965197,-9.972954
12.473712,0.837103,-0.343730,-11.623965
12.512876,0.802086,-0.889777,-9.984327
12.540253,0.824383,-0.841891,-9.860872
12.573651,0.766172,-0.930779,-9.656160
12.606922,0.884091,-1.035380,-9.545275
12.640249,0.922998,-0.918808,-9.610519
12.673628,0.838898,-0.900701,-9.661847
12.706991,0.881846,-1.060968,-9.817326
12.740337,0.870174,-1.625422,-9.859375
12.773719,0.838599,-1.314164,-9.843663
12.806893,1.028646,-1.188464,-9.525073
12.840228,1.109004,-1.365043,-9.802810
12.873656,1.106460,-1.084462,-9.624735
12.906886,1.275108,-1.024156,-9.771235
12.940245,1.244880,-1.110949,-9.703896
12.973960,1.031339,-1.317457,-9.682048
13.006916,1.040467,-1.239044,-9.690428
13.040212,1.141925,-1.168562,-9.737715
13.073582,1.052140,-1.087904,-9.690279
13.106840,1.116935,-1.199837,-9.611118
13.140576,1.172153,-1.196545,-9.642243
13.173549,1.162277,-1.216597,-9.622191
13.206884,1.145517,-1.256103,-9.639849
13.240490,1.035679,-1.230664,-9.607077
13.273607,1.176493,-1.304737,-9.629673
13.306918,1.199089,-1.436423,-9.682797
13.340550,1.091346,-1.567061,-9.803259
13.373583,1.152550,-1.527256,-9.823910
13.407076,1.125016,-1.562572,-9.679055
13.440221,1.231861,-1.309525,-9.684742
13.473583,1.220039,-1.352772,-9.587324
13.506935,1.108705,-1.421758,-9.395033
13.540218,1.304138,-1.312518,-9.627578
13.573573,1.370430,-1.305784,-9.697312
13.606907,1.351126,-1.512591,-9.480928
13.640254,1.409637,-1.437919,-9.405957
13.673608,1.601479,-1.176942,-10.252936
13.706906,1.576488,-1.271217,-10.165245
13.740377,1.294112,-1.522018,-9.230276
13.773609,0.829172,-1.438218,-9.058187
13.807028,1.118880,-1.349330,-9.982232
13.840257,1.148360,-1.285882,-9.707188
13.873599,1.069797,-1.398264,-9.628476
13.906897,0.965197,-1.399012,-9.823760
13.940307,0.992582,-1.462461,-9.895738
13.973523,0.796998,-1.482812,-9.586726
14.006903,0.609346,-1.514387,-9.651521
14.040369,0.870323,-1.284834,-9.534500
14.073578,0.617277,-1.494035,-9.396230
14.106913,0.781585,-1.491491,-9.683245
14.140192,0.855359,-1.271965,-10.271941
14.173668,0.876758,-0.660225,-10.185447
14.206893,0.508487,-1.427893,-9.614709
14.240246,0.593185,-1.176642,-9.611566
14.273567,0.400893,-1.303091,-9.526569
14.306908,0.560263,-1.073987,-9.771535
14.340274,0.528988,-0.877057,-9.874489
14.373589,0.672645,-1.064261,-9.840071
14.406946,0.633588,-1.070845,-9.654364
14.440247,0.629249,-1.050194,-9.734423
14.473634,0.765274,-0.860148,-9.887059
14.506919,0.550087,-1.187117,-9.774977
14.540219,0.598572,-1.005900,-9.816428
14.573605,0.521506,-0.920154,-9.613961
14.606959,0.498760,-1.038971,-9.670675
14.640279,0.511629,-1.047201,-9.652569
14.673609,0.547693,-0.861943,-9.916090
14.706911,0.809419,-0.667707,-10.086683
14.740258,0.660823,-0.820941,-9.811639
14.773590,0.681324,-1.042413,-9.529113
14.806984,0.677134,-1.124567,-9.473895
14.840251,0.746868,-1.343644,-9.446510
14.873581,1.150156,-1.864401,-9.843513
14.906941,1.603275,-0.095921,-10.562996
14.940237,1.192505,-0.770661,-9.545724
14.973611,1.360105,-0.889178,-9.616205
15.006913,1.424002,-1.170058,-9.569068
15.040332,1.471140,-1.046453,-9.580590
15.073623,1.425349,-1.294561,-9.401617
15.106918,1.872033,-1.068750,-10.386268
15.140277,1.500619,-1.423553,-9.507714
15.173571,1.718350,-1.255504,-9.579543
15.206938,1.397964,-1.258198,-9.106970
15.240366,1.625122,-1.036577,-9.863416
15.273594,1.576488,-1.386292,-9.850846
15.306928,1.415323,-1.341399,-9.809245
15.340338,1.016375,-1.547757,-9.404012
15.373640,1.002009,-1.422955,-9.773330
15.406913,0.309911,-2.180597,-8.837763
15.440325,0.855958,-1.288575,-9.549016
15.473565,0.838599,-1.306533,-9.953351
15.506917,0.695241,-1.352024,-10.049122
15.540252,0.272949,-1.977831,-9.374682
15.573580,0.579417,-1.213604,-9.718561
15.606903,0.432318,-1.145816,-9.875986
15.640233,0.422592,-1.130253,-9.673369
15.673808,0.393112,-1.211360,-9.605281
15.706897,0.427680,-1.186818,-9.667383
15.740243,0.405383,-1.267775,-9.697611
15.773611,0.304523,-1.334366,-9.660350
15.806910,0.389221,-1.289024,-9.577747
15.840410,0.349865,-1.381653,-9.776623
15.874997,0.331908,-1.403052,-9.736967
15.906959,0.384133,-1.363547,-9.686687
15.940550,0.506990,-1.415622,-9.783656
15.974329,0.260379,-1.465753,-9.592562
16.010639,0.277887,-1.413378,-9.716765
16.040393,0.311557,-1.431335,-9.796525
16.073734,0.217431,-1.456924,-9.676362
16.107096,0.251849,-1.431784,-9.747143
16.140388,0.181966,-1.412480,-9.632068
16.173612,0.268011,-1.389135,-9.748490
16.206921,0.393561,-1.425648,-9.842316
16.240299,0.270554,-1.365642,-9.725594
16.273747,0.341635,-1.348732,-9.705542
16.306981,0.434563,-1.339753,-9.778568
16.340252,0.362735,-1.408140,-9.767195
16.373850,0.465240,-1.347535,-9.772732
16.407497,0.377848,-1.433430,-9.665438
16.440679,0.438454,-1.413976,-9.632666
16.473883,0.463594,-1.472337,-9.695815
16.507094,0.551135,-1.676899,-9.908009
16.540250,0.522553,-1.618239,-9.887059
16.573664,0.352858,-1.598486,-9.551410
16.606929,0.339241,-1.568408,-9.724697
16.640266,0.360939,-1.669566,-9.511006
16.673770,0.271602,-1.669866,-9.660500
16.706995,0.404186,-1.509299,-9.612764
16.740387,0.115375,-1.416071,-9.577598
16.773699,0.388772,-1.403800,-9.669329
16.806971,0.358395,-1.414126,-9.749238
16.840352,0.345226,-1.477724,-9.670825
16.873951,0.324276,-1.557783,-9.652419
16.907042,0.148895,-1.439864,-9.729934
16.940444,0.242871,-1.596391,-9.620246
16.973693,0.368720,-1.572448,-9.765100
17.007112,0.247659,-1.503463,-9.730533
17.040340,0.317991,-1.509748,-9.669179
17.073834,0.426632,-1.467249,-9.813285
17.117696,0.209949,-1.444204,-9.635659
17.140384,0.409273,-1.459917,-9.701801
17.173757,0.322630,-1.387789,-9.715269
17.207009,0.342383,-1.468297,-9.710032
17.240574,0.330112,-1.454230,-9.753428
17.273615,0.389221,-1.428641,-9.818074
17.307010,0.450425,-1.379259,-9.765848
17.340361,0.325024,-1.419962,-9.715568
17.373715,0.423938,-1.358459,-9.745796
17.407064,0.470627,-1.335563,-9.765250
17.440269,0.446235,-1.397665,-9.729784
17.473754,0.482599,-1.377912,-9.687435
17.506968,0.417803,-1.422655,-9.689979
17.541057,0.472123,-1.369981,-9.765100
17.573656,0.374107,-1.434328,-9.688034
17.606968,0.464791,-1.403352,-9.704644
17.640368,0.432917,-1.439715,-9.742654
17.673706,0.340587,-1.428342,-9.708834
17.706977,0.264718,-1.538030,-9.683844
17.740366,0.251400,-1.527705,-9.749088
17.773885,0.317542,-1.463957,-9.763903
17.807100,0.345526,-1.416670,-9.633863
17.840417,0.234640,-1.477126,-9.691925
17.873759,0.367972,-1.395869,-9.717813
17.907000,0.260229,-1.394672,-9.622490
17.940345,0.226559,-1.455278,-9.674267
17.973724,0.261277,-1.378810,-9.776024
18.007044,0.351511,-1.353371,-9.777072
18.040621,0.477960,-1.292017,-9.710630
18.073768,0.252448,-1.375368,-9.663792
18.106951,0.295246,-1.333618,-9.776772
18.140400,0.193339,-1.391081,-9.702998
18.173613,0.243020,-1.320449,-9.716616
18.207026,0.330561,-1.287528,-9.764202
18.240389,0.435910,-1.281692,-9.782608
18.284494,0.178225,-1.314314,-9.662445
18.306979,0.425884,-1.265830,-9.790240
18.340345,0.333853,-1.277352,-9.801314
18.373672,0.396255,-1.245927,-9.815679
18.406978,0.418252,-1.199538,-9.757319
18.440518,0.396853,-1.321198,-9.877033
18.473640,0.399397,-1.221236,-9.786649
18.507032,0.373359,-1.288575,-9.846656
18.540350,0.428577,-1.197892,-9.841867
18.573710,0.402689,-1.145816,-9.767045
18.607097,0.300782,-1.216597,-9.703447
18.640281,0.202766,-1.274060,-9.677559
18.674589,0.194087,-1.250416,-9.708385
18.706999,0.403737,-1.113493,-9.766597
18.740553,0.312454,-1.168861,-9.627878
18.773698,0.416307,-1.091496,-9.720955
18.806978,0.348818,-1.207918,-9.695516
18.840342,0.181667,-1.252811,-9.649576
18.873727,0.180769,-1.244281,-9.682198
18.906969,0.288362,-1.216448,-9.804606
18.940358,0.367373,-1.215400,-9.849199
18.973774,0.221472,-1.206721,-9.657656
19.007057,0.178075,-1.231262,-9.692523
19.040411,0.259780,-1.196246,-9.786499
19.073719,0.163111,-1.245179,-9.688782
19.106982,0.234790,-1.229766,-9.788594
19.140359,0.162812,-1.255953,-9.696414
19.173807,0.244068,-1.215849,-9.787247
19.207016,0.313801,-1.204476,-9.839473
19.240805,0.190196,-1.142823,-9.616954
19.275387,0.294946,-1.256253,-9.744150
19.307054,0.201419,-1.258647,-9.759114
19.340460,0.292253,-1.275556,-9.856233
19.373672,0.366775,-1.227222,-9.769589
19.407028,0.303027,-1.224678,-9.744749
19.440409,0.340288,-1.242186,-9.722751
19.473773,0.390269,-1.188913,-9.672920
19.507111,0.423938,-1.204626,-9.725744
19.540468,0.340737,-1.235751,-9.692523
19.573771,0.218479,-1.271516,-9.690728
19.607073,0.445936,-1.203429,-9.778568
19.640340,0.423639,-1.228269,-9.727989
19.673693,0.449378,-1.209414,-9.765250
19.707167,0.457309,-1.223481,-9.769889
19.740345,0.354803,-1.262238,-9.723799
19.773838,0.225961,-1.281991,-9.686089
19.807017,0.168947,-1.349031,-9.700454
19.840360,0.330711,-1.320599,-9.811041
19.874279,0.410920,-1.309525,-9.736369
19.907023,0.281478,-1.303839,-9.712875
19.940708,0.233144,-1.347385,-9.704195
19.973856,0.272201,-1.303689,-9.702100
20.006958,0.219825,-1.325687,-9.688932
20.040318,0.296293,-1.289773,-9.649127
20.073700,0.276690,-1.350378,-9.714371
20.106990,0.300633,-1.316858,-9.758366
20.140379,0.254543,-1.326435,-9.634911
20.173663,0.265766,-1.343345,-9.726343
20.207024,0.348818,-1.337209,-9.771086
20.240409,0.277887,-1.374620,-9.749986
20.273783,0.338941,-1.318354,-9.779017
20.307268,0.275044,-1.330924,-9.724547
20.340567,0.368870,-1.305635,-9.807000
20.373694,0.421095,-1.301594,-9.770637
20.407022,0.492475,-1.253709,-9.758815
20.449227,0.256638,-1.335264,-9.739511
20.473710,0.498161,-1.243383,-9.785003
20.507154,0.442045,-1.283936,-9.835432
20.540360,0.356749,-1.292616,-9.621144
20.573993,0.408076,-1.304587,-9.790539
20.607034,0.524349,-1.257899,-9.808048
20.640384,0.502501,-1.262687,-9.738464
20.673819,0.514173,-1.247124,-9.802511
20.706954,0.206507,-1.336012,-9.628775
20.740280,0.382637,-1.275706,-9.689231
20.773729,0.279533,-1.343345,-9.656759
20.845648,0.518363,-1.249668,-9.757019
20.875101,0.386079,-1.305934,-9.699257
20.907891,0.285519,-1.331523,-9.644488
20.941856,0.427680,-1.264034,-9.652419
20.974427,0.307666,-1.282889,-9.650773
21.008991,0.259032,-1.360554,-9.680851
21.041375,0.338792,-1.297853,-9.651371
21.075175,0.231198,-1.368185,-9.634462
21.108072,0.312454,-1.291568,-9.648079
21.141430,0.245265,-1.369832,-9.645086
21.174437,0.295246,-1.343794,-9.753578
21.208663,0.299286,-1.362200,-9.657656
21.241436,0.302129,-1.368934,-9.714820
21.277076,0.341934,-1.311770,-9.761359
21.307878,0.421395,-1.302343,-9.852342
21.341477,0.530035,-1.217046,-9.812238
21.374480,0.480653,-1.221835,-9.738613
21.408616,0.378148,-1.306832,-9.814033
21.442819,0.398798,-1.326734,-9.763604
21.477481,0.354055,-1.281692,-9.792335
21.507867,0.452969,-1.324340,-9.809993
21.541103,0.533327,-1.280944,-9.823461
21.574915,0.502800,-1.248621,-9.742654
21.607932,0.407627,-1.265530,-9.696564
21.641151,0.275792,-1.340502,-9.632666
21.674528,0.490679,-1.318504,-9.764502
21.707752,0.495169,-1.236500,-9.724697
21.741706,0.408076,-1.246376,-9.686388
21.776486,0.502950,-1.218094,-9.712725
21.807856,0.442195,-1.226623,-9.688483
21.842052,0.309312,-1.310872,-9.685041
21.874129,0.292103,-1.280644,-9.723050
21.907841,0.306020,-1.268523,-9.693272
21.942216,0.431271,-1.220937,-9.729635
21.974620,0.356898,-1.290371,-9.676063
22.008063,0.254543,-1.379259,-9.653616
22.041773,0.351511,-1.290970,-9.648079
22.075111,0.262174,-1.351575,-9.656759
22.108702,0.377400,-1.290221,-9.681300
22.141443,0.260678,-1.313267,-9.659003
22.174629,0.256638,-1.303540,-9.698359
22.208014,0.364081,-1.269271,-9.767045
22.241252,0.346274,-1.278549,-9.711827
22.274749,0.539762,-1.291718,-9.765399
22.308470,0.370965,-1.210462,-9.673519
22.342071,0.337445,-1.287678,-9.679205
22.374515,0.552482,-1.307131,-9.809694
22.408209,0.444739,-1.419663,-9.702549
22.441080,0.525696,-1.417568,-9.758815
22.475248,0.615033,-1.346487,-9.679355
22.507918,0.692099,-1.106011,-9.622790
22.541398,0.648852,-1.141776,-9.597949
22.575633,0.679080,-1.364744,-9.642991
22.608610,0.679229,-1.342297,-9.767045
22.641669,0.724870,-1.344542,-9.600643
22.674311,0.899653,-1.284385,-9.880624
22.708183,0.815853,-1.386741,-9.843513
22.741611,0.918658,-1.484159,-9.828998
22.774611,1.069648,-1.532643,-9.684892
22.808325,1.981871,-2.205138,-10.495956
22.841117,1.113344,-1.857668,-10.069324
22.875036,0.816602,-1.912886,-9.540336
22.907877,0.529287,-1.856620,-9.285345
22.942732,0.200073,-1.746632,-9.572809
22.974855,-0.026636,-1.384497,-9.518040
23.008617,0.370366,-1.489396,-9.263647
23.041094,0.518962,-1.531147,-9.641495
23.074832,0.599320,-1.751720,-9.720507
23.108282,0.698683,-1.806789,-9.695965
23.142020,0.738189,-1.889691,-9.713473
23.175620,0.593185,-1.778656,-9.825107
23.209019,0.533327,-1.766086,-9.599745
23.242369,0.403437,-1.629312,-9.618001
23.274508,0.404335,-1.621531,-9.497389
23.307889,0.488135,-1.511394,-9.647181
23.341423,0.472722,-1.560477,-9.637006
23.375158,0.636282,-1.508999,-9.695367
23.407419,0.688956,-1.505707,-9.616954
23.441135,0.668156,-1.655650,-9.786499
23.474415,0.592287,-1.697550,-9.755822
23.508689,0.516867,-1.684680,-9.650773
23.541429,0.682222,-1.602377,-9.801164
23.574458,0.671897,-1.345440,-9.645086
23.608037,0.545449,-1.463807,-9.595854
23.642275,0.505195,-1.549253,-9.702849
23.675741,0.419449,-1.602227,-9.680253
23.711487,0.493822,-1.546560,-9.659752
23.741696,0.485591,-1.529650,-9.657656
23.774574,0.477361,-1.554491,-9.700005
23.808560,0.695391,-1.479520,-9.617253
23.841881,0.732053,-1.557933,-9.878829
23.874418,0.643914,-1.607315,-9.770188
23.908751,0.334302,-1.541322,-9.308540
23.941351,0.442494,-1.433579,-10.084289
23.974765,0.599021,-1.406195,-10.148635
24.008751,0.720082,-1.849587,-9.275319
24.041026,0.683270,-1.448095,-9.466712
24.077085,0.521955,-1.403501,-9.954847
24.107759,0.488584,-1.502565,-9.634462
24.140534,0.444739,-1.481465,-9.598996
24.177122,0.407927,-1.401556,-9.750435
24.207334,0.457458,-1.425648,-9.616804
24.241105,0.442943,-1.394523,-9.754924
24.275467,0.455663,-1.513489,-9.708535
24.308014,0.476164,-1.487900,-9.713324
24.343462,0.449378,-1.424900,-9.760760
24.375853,0.493223,-1.417568,-9.765399
24.408038,0.453119,-1.502565,-9.713773
24.442156,0.444440,-1.490294,-9.742504
24.474524,0.482898,-1.506156,-9.766896
24.508197,0.448181,-1.434627,-9.694319
24.541822,0.422592,-1.476228,-9.698659
24.573994,0.418102,-1.314763,-9.672471
24.606908,0.427380,-1.418765,-9.692823
24.640294,0.448330,-1.415173,-9.684143
24.673612,0.342383,-1.415323,-9.741606
24.706955,0.337445,-1.409487,-9.672770
24.740237,0.326820,-1.266877,-9.717663
24.773557,0.382038,-1.334815,-9.781411
24.806975,0.475266,-1.308478,-9.801763
24.840322,0.621916,-1.963914,-9.696264
24.873603,0.559066,-1.236500,-9.692374
24.907053,0.391466,-1.139830,-9.847703
24.940682,0.405832,-1.112895,-9.735620
24.973732,0.396853,-1.188614,-9.799368
25.007692,0.454615,-1.219440,-9.622341
25.040357,0.379943,-0.957565,-9.716167
25.073697,0.336996,-0.984052,-9.746245
25.107618,0.351511,-1.158835,-9.708834
25.140528,0.305571,-1.064410,-9.741008
25.173616,0.300633,-1.266578,-9.743402
25.207052,0.350164,-1.431335,-9.609172
25.240404,0.291355,-1.271067,-9.704046
25.273939,0.300184,-1.392577,-9.706440
25.307033,0.230151,-1.297105,-9.646284
25.340412,0.277887,-1.227970,-9.670227
25.375582,0.139318,-1.133396,-9.730982
25.407032,0.104301,-1.109154,-9.811340
25.440862,0.399397,-1.267176,-9.679205
25.473726,0.460002,-1.470691,-9.864613
25.507112,0.133332,-1.248321,-9.650623
25.540323,0.161614,-1.432233,-9.693720
25.573750,0.243918,-1.358608,-9.752979
25.607042,0.301531,-1.468895,-9.642393
25.640427,0.153234,-1.464855,-9.842765
25.673753,0.282825,-1.360853,-9.801613
25.706958,0.276989,-1.349031,-9.645835
25.740838,0.276690,-1.236649,-9.838724
25.773823,0.346423,-1.178139,-9.823760
25.807009,0.235688,-1.235303,-9.726941
25.840390,0.311108,-1.220338,-9.840819
25.873712,0.284771,-1.129954,-9.825706
25.906891,0.160118,-1.107059,-9.692074
25.940329,0.220574,-1.314314,-9.806851
25.981222,0.181367,-1.413677,-9.842914
26.006997,0.224913,-1.406793,-9.798022
26.040332,0.289709,-1.324639,-9.789492
26.073623,0.166253,-1.134144,-9.586426
26.107521,0.188400,-1.132797,-9.775276
26.140549,0.172688,-1.185771,-9.762107
26.173861,0.294946,-1.421458,-9.697462
26.207083,0.122408,-1.194600,-9.688782
26.240353,0.304074,-1.289024,-9.811340
26.273657,0.213391,-1.291868,-9.785152
26.307223,0.238082,-1.322245,-9.706290
26.340475,0.202766,-1.136837,-9.760461
26.373731,0.190047,-1.188464,-9.795328
26.407083,0.249305,-1.297704,-9.706889
26.440499,0.346723,-1.322993,-9.702549
26.474142,0.228205,-1.212108,-9.749537
26.507637,0.270704,-1.185771,-9.710480
26.540327,0.348818,-1.224828,-9.761209
26.573758,0.448630,-1.254008,-9.740110
26.607258,0.358245,-1.144918,-9.706889
26.640354,0.436808,-1.183676,-9.816428
26.674134,0.520159,-1.219440,-9.779316
26.706974,0.504895,-1.230065,-9.796226
26.740827,0.497712,-1.292765,-9.802810
26.773777,0.553978,-1.370430,-9.710929
26.807015,0.437406,-1.291269,-9.777969
26.840840,0.565351,-1.202830,-9.739661
26.873666,0.502950,-1.225276,-9.705542
26.907033,0.362286,-1.196545,-9.668132
26.940955,0.472423,-1.265680,-9.700155
26.973937,0.432767,-1.226025,-9.748041
27.007025,0.404784,-1.253110,-9.711378
27.040367,0.484245,-1.255504,-9.809394
27.081674,0.537218,-1.165569,-9.698060
27.107014,0.348518,-1.238445,-9.685939
27.140283,0.403886,-1.187716,-9.661847
27.173649,0.457907,-1.192804,-9.821964
27.206994,0.469729,-1.185471,-9.738763
27.240418,0.416756,-1.221535,-9.765100
27.273849,0.467335,-1.201334,-9.776174
27.306970,0.540959,-1.217495,-9.822264
27.340557,0.555026,-1.158087,-9.785751
27.373805,0.517016,-1.174099,-9.770038
27.407015,0.514173,-1.183676,-9.777221
27.440352,0.513724,-1.208816,-9.734423
27.473989,0.509534,-1.201184,-9.780064
27.507097,0.511929,-1.115887,-9.755224
27.540946,0.594681,-1.204775,-9.730982
27.573680,0.591987,-1.251913,-9.728587
27.607156,0.558617,-1.141027,-9.738015
27.640454,0.506392,-1.112296,-9.693870
27.673897,0.566399,-1.239044,-9.754924
27.707133,0.555475,-1.169160,-9.737865
27.740421,0.631194,-1.153897,-9.770038
27.773730,0.639275,-1.166916,-9.728438
27.807032,0.616828,-1.138484,-9.739511
27.840335,0.560413,-1.131001,-9.676212
27.873704,0.630146,-1.172901,-9.675165
27.907119,0.597375,-1.166467,-9.764502
27.940749,0.524050,-1.183975,-9.757169
27.973793,0.551584,-1.140878,-9.639849
28.007141,0.484245,-1.119928,-9.635210
28.040499,0.629698,-1.174398,-9.761958
28.073702,0.576125,-1.208816,-9.710331
28.107097,0.550387,-1.233058,-9.741307
28.140631,0.578819,-1.215101,-9.715269
28.181340,0.616978,-1.260443,-9.704944
28.206982,0.582710,-1.239044,-9.732628
28.240655,0.546047,-1.226474,-9.734723
28.273744,0.591389,-1.204177,-9.722452
28.307154,0.690901,-1.242336,-9.760760
28.340430,0.584954,-1.194300,-9.714670
28.373935,0.688058,-1.226773,-9.775575
28.407016,0.622964,-1.209863,-9.739362
28.440408,0.704968,-1.221685,-9.756870
28.474031,0.593185,-1.212706,-9.736219
28.507009,0.671149,-1.220189,-9.759114
28.540520,0.709906,-1.200885,-9.752829
28.574963,0.738189,-1.187866,-9.763155
28.607027,0.754200,-1.244131,-9.740708
28.640259,0.779191,-1.156141,-9.772283
28.674657,0.776198,-1.220338,-9.775575
28.707026,0.775300,-1.184873,-9.718561
28.740779,0.773953,-1.197293,-9.778418
28.773864,0.800440,-1.171555,-9.796675
28.807831,0.792808,-1.126811,-9.721704
28.840620,0.701825,-1.186519,-9.652419
28.873867,0.780089,-1.106310,-9.707937
28.907035,0.757493,-1.220488,-9.654963
28.940457,0.704369,-1.192056,-9.726792
28.973841,0.577622,-1.257001,-9.699407
29.007073,0.648852,-1.247573,-9.648229
29.040371,0.754949,-1.170956,-9.711528
29.074118,0.645709,-1.276754,-9.651072
29.107008,0.647954,-1.299799,-9.710032
29.140635,0.665761,-1.274808,-9.694469
29.174209,0.629249,-1.269122,-9.711827
29.207042,0.684018,-1.264782,-9.664690
29.241049,0.628949,-1.253559,-9.671873
29.286261,0.692697,-1.243234,-9.683994
29.307007,0.596626,-1.299200,-9.721105
29.340292,0.631942,-1.245478,-9.740858
29.373718,0.700778,-1.225725,-9.779466
29.407057,0.849822,-1.246077,-9.811190
29.440606,0.798944,-1.166018,-9.787846
29.473766,0.670251,-1.231561,-9.706440
29.506957,0.724122,-1.242485,-9.812986
29.540366,0.757343,-1.346637,-9.800266
29.574712,0.665013,-1.281093,-9.812836
29.607027,0.745671,-1.314314,-9.761509
29.640246,0.749262,-1.140579,-9.764053
29.673609,0.822737,-1.326435,-9.736967
29.706898,0.844734,-1.234554,-9.707488
29.740232,0.646009,-1.290521,-9.655412
29.773603,0.813010,-1.238744,-9.758665
29.806944,0.825131,-1.405895,-9.709732
29.840270,0.763179,-1.506156,-9.646733
29.873621,0.810017,-1.486104,-9.745347
29.906996,0.708410,-1.386891,-9.771535
29.940271,0.823784,-1.647419,-9.728288
29.973667,0.773804,-1.550750,-9.708984
30.006933,0.727265,-1.371927,-9.679953
30.040371,0.964598,-1.332421,-9.717663
30.073920,0.831416,-1.315661,-9.726792
30.107116,0.664415,-1.525011,-9.454441
30.140330,0.555325,-1.557484,-9.501429
30.173900,0.708410,-1.533092,-9.682348
30.206930,0.670400,-1.600282,-9.690578
30.240389,0.561161,-1.656847,-9.518788
30.273735,0.632690,-1.685129,-9.627429
30.311143,0.754200,-1.571850,-9.577448
30.340303,0.762281,-1.705032,-9.632367
30.373925,0.712600,-1.777459,-9.627878
30.407229,0.833362,-1.736457,-9.682946
30.440362,0.828573,-1.679293,-9.643740
30.473782,0.821240,-1.752169,-9.785302
30.506946,0.928684,-1.586365,-9.873442
30.540437,0.948287,-1.729872,-9.706889
30.574057,0.830369,-1.798708,-9.688633
30.607589,0.871371,-1.763392,-9.734124
30.640412,0.843837,-1.826691,-9.682647
30.674277,0.843388,-1.881610,-9.608424
30.708215,0.798944,-2.023921,-9.615008
30.740397,0.766322,-1.933985,-9.546322
30.773854,0.743127,-1.866347,-9.559640
30.806981,0.740433,-1.925605,-9.646882
30.840534,0.972081,-1.771024,-9.708236
30.874288,0.971931,-1.724934,-9.606928
30.906990,0.870922,-1.786288,-9.591065
30.940437,0.858951,-1.801551,-9.640148
30.974225,0.807922,-1.776561,-9.543329
31.007103,0.706614,-1.924408,-9.527467
31.040329,0.854012,-1.800055,-9.625932
31.074730,0.696438,-1.802449,-9.613063
31.107053,0.718885,-1.761148,-9.529712
31.140304,0.830518,-1.827889,-9.593310
31.173848,0.878554,-1.819958,-9.679504
31.207035,0.757044,-1.787036,-9.578944
31.241323,0.801338,-1.790179,-9.634013
31.273810,0.662769,-1.866048,-9.716765
31.307046,0.667856,-1.863204,-9.729036
31.340360,0.608448,-1.810530,-9.594208
31.375002,0.574928,-1.932788,-9.628476
31.407322,0.562209,-1.888793,-9.580590
31.448182,0.632840,-1.865299,-9.525222
31.473893,0.500256,-2.040382,-9.632068
31.507099,0.731904,-1.996237,-9.676212
31.540383,0.909530,-1.939822,-9.781262
31.574485,0.727863,-1.848390,-9.634462
31.607074,0.846081,-1.853328,-9.763753
31.640432,1.004703,-1.811877,-9.712426
31.673734,0.898007,-1.865599,-9.634163
31.707039,0.811514,-1.843302,-9.528365
31.740302,0.768417,-1.856770,-9.527168
31.773677,0.794754,-1.928149,-9.647930
31.807301,0.861943,-1.908845,-9.612913
31.841365,0.796100,-1.858715,-9.661547
31.873741,0.889478,-1.809483,-9.646433
31.907020,0.889927,-1.832079,-9.645685
31.940452,0.790264,-1.965111,-9.578645
31.974697,0.699730,-1.910492,-9.564130
32.007080,0.747167,-1.852131,-9.651521
32.040815,0.826029,-1.939822,-9.623688
32.074227,0.779340,-1.952242,-9.613512
32.107057,0.693296,-1.895378,-9.626531
32.140486,0.750759,-1.958527,-9.547968
32.174189,0.731155,-2.007161,-9.581189
32.207101,0.791162,-1.859613,-9.648977
32.240357,0.770960,-1.874278,-9.579244
32.273889,0.760186,-1.868891,-9.663193
32.307004,0.674590,-1.938325,-9.623688
32.340359,0.658728,-1.919769,-9.588521
32.374121,0.754200,-1.982170,-9.691177
32.408513,0.669652,-1.985313,-9.648229
32.440380,0.757642,-2.012249,-9.633265
32.474389,0.722626,-2.054448,-9.657806
32.507025,0.849224,-1.962717,-9.708236
32.545094,0.898456,-1.949249,-9.693122
32.573758,0.777245,-1.925456,-9.615607
32.606968,0.877357,-1.968104,-9.655561
32.640304,0.822138,-1.996237,-9.608274
32.673687,0.945893,-1.993843,-9.637455
32.707355,0.895912,-1.904955,-9.635809
32.740379,0.707213,-1.953738,-9.520284
32.774641,0.707961,-1.955384,-9.536296
32.807038,0.774702,-1.938774,-9.600493
32.840550,0.809568,-1.963914,-9.630571
32.874121,0.804032,-1.948650,-9.672172
32.907028,0.841143,-1.951494,-9.666336
32.940608,0.797148,-1.951643,-9.597799
32.974502,0.833661,-1.987707,-9.682647
33.006986,0.873616,-1.851083,-9.674267
33.040367,0.969836,-1.896724,-9.599296
33.075070,0.888580,-1.868143,-9.614859
33.106984,0.850271,-1.947304,-9.650324
33.140366,0.808970,-1.885351,-9.562035
33.173856,0.610992,-2.042477,-9.506966
33.207055,0.715443,-1.886848,-9.590766
33.240740,0.659177,-1.871884,-9.623388
33.273697,0.854761,-1.893283,-9.659901
33.307214,0.818248,-1.919021,-9.647930
33.340382,0.730407,-1.850634,-9.608424
33.374253,0.789367,-1.795117,-9.667234
33.406971,0.787720,-1.903907,-9.760461
33.440370,0.770362,-1.905104,-9.632666
33.474291,0.863739,-1.853777,-9.650474
33.507358,0.724870,-1.951793,-9.683994
33.540344,0.814207,-1.977083,-9.682198
33.573660,0.849074,-1.891636,-9.645236
33.613523,0.679529,-1.910342,-9.625034
33.640354,0.910727,-1.805143,-9.702849
33.673745,0.803583,-1.875774,-9.708236
33.706975,0.838449,-1.767582,-9.749837
33.740450,0.841143,-1.700094,-9.677409
33.774472,0.881996,-1.621232,-9.691177
33.806991,0.854162,-1.743789,-9.637006
33.840365,0.740882,-1.742293,-9.602139
33.874188,0.825430,-1.590106,-9.698958
33.907036,0.807324,-1.612403,-9.628177
33.940442,0.798046,-1.491791,-9.589719
33.974108,0.921950,-1.434328,-9.532854
34.006959,0.640921,-1.423254,-9.330537
34.040358,0.680875,-1.676300,-9.859974
34.073789,0.973128,-1.544315,-10.004678
34.107306,0.489482,-1.744986,-9.685490
34.140629,0.698234,-1.651759,-9.691476
34.173594,0.557270,-1.651310,-9.637155
34.206985,0.766172,-1.539976,-9.713174
34.240247,0.796549,-1.509598,-9.783207
34.273770,0.750759,-1.553144,-9.591963
34.306952,0.743277,-1.535037,-9.724098
34.340877,0.798644,-1.508999,-9.818223
34.373658,0.928235,-1.435525,-9.565028
34.407312,0.904292,-1.535187,-9.699108
34.440301,1.013083,-1.489247,-9.820318
34.473668,0.777245,-1.597738,-9.450700
34.508079,0.859998,-1.382402,-9.700454
34.540352,0.928235,-1.433131,-9.618600
34.574204,1.034332,-1.359207,-9.585529
34.607089,0.994527,-1.434477,-9.644338
34.640364,0.891573,-1.359656,-9.569367
34.673655,0.858951,-1.394972,-9.654364
34.707024,0.808371,-1.324939,-9.754924
34.741153,0.955620,-1.255504,-9.716466
34.773604,0.801637,-1.414724,-9.545873
34.807008,0.989738,-1.451237,-9.796974
34.840682,1.131001,-1.400508,-9.962778
34.873642,1.100923,-1.357411,-9.719758
34.907026,1.078477,-1.408140,-9.654514
34.940749,1.217645,-1.415323,-9.861470
34.973700,1.020415,-1.398264,-9.587923
35.008023,0.996173,-1.470392,-9.763155
35.040355,1.080123,-1.461862,-9.814782
35.073767,1.059472,-1.436572,-9.607376
35.107985,1.060968,-1.485206,-9.591963
35.140259,1.180683,-1.353221,-9.630421
35.174006,0.972530,-1.485206,-9.547519
35.206993,1.142524,-1.471888,-9.593759
35.240351,1.082367,-1.469793,-9.663642
35.273713,0.778742,-1.502864,-9.385905
35.309019,0.964150,-1.503612,-9.471650
35.340375,0.989888,-1.423853,-9.705243
35.374034,1.142973,-1.473833,-9.663193
35.407601,0.873167,-1.520821,-9.535099
35.440468,1.081470,-1.484458,-9.716466
35.473847,1.047950,-1.541921,-9.662445
35.507012,1.091945,-1.485954,-9.662445
35.540424,1.069498,-1.452285,-9.720357
35.573837,1.120826,-1.524113,-9.741307
35.607002,1.167365,-1.500619,-9.771086
35.640584,1.144170,-1.475330,-9.724547
35.673656,1.060968,-1.609111,-9.827801
35.707193,1.173500,-1.522318,-9.867755
35.740853,1.146864,-1.555987,-9.710929
35.773903,1.185322,-1.491491,-9.759264
35.807143,1.110949,-1.461712,-9.676811
35.840361,1.136239,-1.524712,-9.605431
35.884979,1.028197,-1.497926,-9.632068
35.907007,1.134144,-1.507952,-9.627728
35.940283,1.046154,-1.533541,-9.608274
35.973618,1.149108,-1.518726,-9.576400
36.006992,1.075185,-1.539227,-9.533602
36.040304,1.108256,-1.507204,-9.551111
36.073759,0.934819,-1.575591,-9.495294
36.107024,1.074586,-1.524712,-9.567422
36.140473,1.068600,-1.521420,-9.525073
36.174247,1.023408,-1.610158,-9.615008
36.207579,1.042862,-1.587861,-9.671873
36.240286,1.030292,-1.495232,-9.659901
36.273938,1.119778,-1.609709,-9.748639
36.307913,1.001860,-1.569156,-9.739810
36.341336,1.011586,-1.588759,-9.694469
36.374169,1.101671,-1.573645,-9.711528
36.407029,1.055432,-1.650711,-9.706290
36.440267,0.981807,-1.664778,-9.672770
36.473821,1.047650,-1.643080,-9.691027
36.506957,1.204925,-1.583671,-9.751782
36.540340,1.211060,-1.514536,-9.651970
36.574494,0.994377,-1.546859,-9.566225
36.607049,0.923896,-1.616593,-9.585828
36.640442,1.185920,-1.532344,-9.607077
36.673960,1.094788,-1.623626,-9.622640
36.707256,1.094040,-1.512890,-9.615308
36.740693,1.124716,-1.477126,-9.613512
36.774003,1.148959,-1.365043,-9.685939
36.807040,1.195348,-1.418615,-9.630122
36.840474,1.166317,-1.404848,-9.670975
36.874095,1.061567,-1.346038,-9.695217
36.907215,1.164222,-1.326585,-9.682048
36.942978,1.044059,-1.287977,-9.801613
36.973695,1.079375,-1.263136,-9.756870
37.006942,0.882594,-1.169160,-9.670077
37.040453,0.977468,-1.239941,-9.645086
37.073650,1.132498,-1.302791,-9.614110
37.107279,1.174099,-1.392278,-9.873142
37.140425,1.199837,-1.377164,-9.862817
37.174458,1.244131,-1.309076,-9.640298
37.206987,1.193253,-1.355615,-9.604384
37.241531,1.132199,-1.346487,-9.585978
37.275544,1.249818,-1.244131,-9.521332
37.307114,1.144170,-1.290371,-9.455339
37.340523,1.118132,-1.271516,-9.424962
37.374708,1.193851,-1.205224,-9.500531
37.407041,1.087904,-1.246376,-9.468957
37.440506,1.036128,-1.215400,-9.782758
37.474772,0.865385,-1.423254,-9.784853
37.507176,0.809868,-1.641433,-9.794430
37.541836,1.349330,-1.551797,-9.904717
37.574128,0.836055,-1.560477,-9.934047
37.607752,1.081021,-1.483111,-9.857131
37.640583,0.851019,-1.542519,-9.757917
37.673858,1.030441,-1.426546,-9.741606
37.707456,1.400359,-1.361152,-9.811938
37.741996,1.138035,-1.431784,-9.635958
37.775036,1.164671,-1.281542,-9.662295
37.807242,1.135491,-1.208965,-9.572360
37.840493,1.118282,-1.147163,-9.449952
37.874323,1.144320,-1.347235,-9.378423
37.907297,1.055432,-1.277801,-9.509510
37.941152,0.729509,-1.213006,-9.601840
37.974037,0.707362,-1.264333,-9.625783
38.012656,0.826628,-1.428192,-9.650773
38.040259,1.112446,-1.302791,-9.952303
38.073685,1.181880,-1.387938,-10.007671
38.106972,1.051092,-1.449292,-9.843363
38.142113,1.344692,-1.243683,-9.850546
38.176552,1.238295,-1.331224,-9.955745
38.207278,1.447496,-1.313715,-9.920729
38.240381,1.315212,-1.289773,-9.825706
38.275189,1.166167,-1.395271,-9.718412
38.307247,1.274958,-1.174847,-9.687735
38.340574,1.045705,-1.306981,-9.542880
38.374561,1.106759,-1.250267,-9.606329
38.407242,1.160032,-1.278849,-9.556797
38.440395,1.168861,-1.245329,-9.478833
38.475248,1.134593,-1.272713,-9.481826
38.508026,1.091496,-1.274958,-9.591514
38.540619,1.393625,-1.236500,-9.546771
38.574348,1.266728,-1.254606,-9.635360
38.606937,1.250267,-1.236051,-9.667234
38.640305,1.151054,-1.312518,-9.650773
38.673654,1.226773,-1.243832,-9.712575
38.707023,1.254606,-1.401705,-9.660799
38.741036,1.187566,-1.354867,-9.634013
38.773826,1.251314,-1.422057,-9.770338
38.807103,1.347535,-1.430287,-9.745198
38.840485,1.316858,-1.379558,-9.636856
38.873676,1.284834,-1.566612,-9.586875
38.908104,1.462909,-1.426247,-9.711229
38.940373,1.288426,-1.570503,-9.587025
38.973709,1.258647,-1.569605,-9.543329
39.007414,1.353371,-1.579182,-9.487812
39.040393,1.432083,-1.588610,-9.471501
39.074156,1.515733,-1.454829,-9.570864
39.113764,1.621531,-1.421159,-9.638353
39.140307,1.388088,-1.622878,-9.565626
39.174026,1.403052,-1.557783,-9.476738
39.207030,1.158087,-1.704732,-9.586576
39.248708,1.540873,-1.525460,-9.672471
39.274277,1.332122,-1.608512,-9.558144
39.306939,1.281692,-1.612403,-9.688034
39.340352,1.305485,-1.661037,-9.657507
39.373933,1.372525,-1.701740,-9.641196
39.407000,1.408290,-1.601928,-9.511904
39.440522,1.273162,-1.581277,-9.600942
39.473861,1.265081,-1.574393,-9.692074
39.507393,1.157488,-1.611355,-9.699108
39.542650,1.227371,-1.607465,-9.495892
39.574103,1.304587,-1.699046,-9.530610
39.607219,1.396169,-1.633951,-9.694768
39.640569,1.233058,-1.616293,-9.616654
39.674530,1.253409,-1.643379,-9.610968
39.707233,1.173500,-1.762644,-9.631170
39.740549,1.315212,-1.663431,-9.659901
39.774077,1.246526,-1.601628,-9.681300
39.810623,1.300996,-1.671063,-9.564130
39.840885,1.372675,-1.634849,-9.631918
39.873633,1.275257,-1.601030,-9.748041
39.906927,1.234255,-1.631108,-9.619049
39.941139,1.198341,-1.695904,-9.590168
39.973956,1.290970,-1.679742,-9.777371
40.007657,1.252063,-1.680790,-9.731580
40.041077,1.295309,-1.645923,-9.572809
40.073599,1.251913,-1.691564,-9.582236
40.107428,1.203129,-1.652357,-9.553505
40.140411,1.150156,-1.592201,-9.577897
40.175464,1.336162,-1.478772,-9.572510
40.207876,1.294561,-1.538329,-9.482874
40.242683,1.250716,-1.615396,-9.628626
40.273788,1.401556,-1.440613,-9.665288
40.308133,1.359207,-1.491192,-9.416432
40.340388,1.139830,-1.594296,-9.406556
40.373577,1.187417,-1.650861,-9.563531
40.406898,1.354119,-1.559429,-9.737117
40.440267,1.223032,-1.639039,-9.643291
40.473619,1.157189,-1.593248,-9.554403
40.506954,1.201034,-1.654303,-9.676512
40.540252,1.252063,-1.563769,-9.674117
40.574396,1.251165,-1.565415,-9.706290
40.606958,1.279597,-1.581726,-9.590766
40.641182,1.209863,-1.643528,-9.626531
40.673712,1.324639,-1.551348,-9.719459
40.707636,1.211958,-1.601030,-9.625334
40.742061,1.186818,-1.590854,-9.514598
40.773767,1.230065,-1.638141,-9.458182
40.807905,1.136239,-1.578284,-9.581488
40.842349,1.170507,-1.593697,-9.601241
40.874278,1.180234,-1.667471,-9.493648
40.906984,1.317905,-1.590854,-9.713324
40.941065,1.414126,-1.476826,-9.713024
40.974832,1.262986,-1.552845,-9.623089
41.007291,1.288875,-1.561075,-9.561735
41.041262,1.355765,-1.526657,-9.651970
41.074802,1.295609,-1.618688,-9.700005
41.107959,1.259245,-1.601928,-9.612315
41.141843,1.306832,-1.598785,-9.628027
41.175117,1.245778,-1.632455,-9.759114
41.208063,1.366390,-1.605370,-9.787098
41.241068,1.359357,-1.577536,-9.726343
41.275092,1.415024,-1.546111,-9.745198
41.315385,1.199987,-1.632156,-9.606030
41.340846,1.229018,-1.605220,-9.678307
41.374681,1.217645,-1.569006,-9.683844
41.407224,1.236200,-1.634550,-9.618001
41.442090,1.267176,-1.604921,-9.533902
41.474870,1.080721,-1.514836,-9.549315
41.507751,1.333468,-1.598187,-9.671124
41.541800,1.267326,-1.586215,-9.659452
41.575131,1.239941,-1.621531,-9.539888
41.607976,1.250117,-1.524712,-9.693122
41.642442,1.135191,-1.556287,-9.580890
41.674878,1.276005,-1.549253,-9.704345
41.708075,1.106011,-1.565116,-9.603336
41.742416,1.117384,-1.588610,-9.589569
41.774491,1.117085,-1.565116,-9.722602
41.808100,1.174996,-1.587113,-9.742055
41.841725,1.176044,-1.572149,-9.644787
41.875631,1.168711,-1.487301,-9.662894
41.910341,1.036277,-1.659690,-9.678756
41.941708,1.227970,-1.519923,-9.774827
41.975091,1.354119,-1.473534,-9.733825
42.008336,1.359955,-1.385544,-9.508911
42.043433,1.266578,-1.348283,-9.534500
42.075059,1.313566,-1.427743,-9.550363
42.108564,1.175296,-1.420261,-9.456087
42.141795,1.287079,-1.413677,-9.505320
42.175264,1.217944,-1.443007,-9.561885
42.209307,1.398713,-1.299649,-9.687585
42.242778,1.271516,-1.417867,-9.661847
42.275256,1.323742,-1.390782,-9.756720
42.308540,1.192205,-1.462461,-9.709732
42.342592,1.454679,-1.459917,-9.753129
42.374742,1.482213,-1.532044,-9.732328
42.410122,1.559878,-1.410085,-9.708984
42.443769,1.329578,-1.461712,-9.489907
42.474379,1.242635,-1.449891,-9.510707
42.508184,1.234554,-1.440762,-9.553655
42.540998,1.168711,-1.574842,-9.572959
42.575333,1.365492,-1.432981,-9.453244
42.608043,1.188614,-1.444054,-9.500232
42.642053,1.368634,-1.438218,-9.582236
42.675280,1.455278,-1.353371,-9.657058
42.708198,1.322395,-1.391679,-9.604683
42.741423,1.254606,-1.514087,-9.633863
42.775351,1.293963,-1.559579,-9.622790
42.808153,1.420112,-1.443007,-9.706440
42.841497,1.379259,-1.479969,-9.757319
42.875660,1.306981,-1.458271,-9.654664
42.908697,1.268224,-1.470092,-9.686089
42.941863,1.328231,-1.466501,-9.650174
42.976369,1.363995,-1.515284,-9.726492
43.008616,1.220189,-1.548655,-9.652419
43.042012,1.236949,-1.516182,-9.606329
43.075377,1.333768,-1.431335,-9.672770
43.108638,1.177989,-1.510795,-9.593759
43.142628,1.380307,-1.449891,-9.645835
43.175279,1.401406,-1.463807,-9.662295
43.208453,1.287827,-1.488049,-9.712725
43.242214,1.038073,-1.508850,-9.704345
43.275267,1.323143,-1.496579,-9.649426
43.308620,1.321198,-1.485057,-9.632217
43.340411,1.043311,-1.620334,-9.674417
43.373930,1.439715,-1.571401,-9.707937
43.407290,1.273461,-1.513489,-9.681899
43.440801,1.215699,-1.596541,-9.605880
43.473950,1.217345,-1.604472,-9.610220
43.507028,1.372525,-1.435226,-9.595854
43.549643,1.596840,-1.426546,-9.720507
43.575177,1.139980,-1.552396,-9.545424
43.607153,1.448394,-1.302791,-9.555899
43.640502,1.496579,-1.447047,-9.522978
43.673779,1.424601,-1.401705,-9.480779
43.707094,1.308029,-1.439416,-9.545574
43.740479,1.355765,-1.501368,-9.619498
43.774432,1.308777,-1.398713,-9.578495
43.807321,1.196844,-1.485805,-9.631469
43.840311,1.384347,-1.394373,-9.703597
43.873985,1.152550,-1.470392,-9.626680
43.906964,1.071294,-1.507204,-9.593011
43.940343,1.111997,-1.551049,-9.618899
43.973803,1.322095,-1.416819,-9.676362
44.007012,1.483560,-1.455427,-9.748490
44.040641,1.451836,-1.251763,-9.635958
44.073635,1.346188,-1.441361,-9.739511
44.107176,1.325388,-1.469643,-9.698659
44.140323,1.226324,-1.431036,-9.656160
44.173738,1.456026,-1.293364,-9.787547
44.207036,1.427145,-1.239193,-9.799069
44.240342,1.340053,-1.308777,-9.811041
44.273639,1.257300,-1.183676,-9.731430
44.307119,1.195647,-1.142524,-9.557246
44.340402,1.341399,-1.194749,-9.654664
44.373646,1.262238,-1.221685,-9.648528
44.407551,1.218094,-1.025353,-9.651371
44.441618,1.253110,-1.059771,-9.525073
44.473848,1.287079,-1.103766,-9.663942
44.507028,1.278100,-1.023857,-9.792634
44.540433,1.251763,-1.084462,-9.478384
44.573873,1.181281,-1.130552,-9.449802
44.613275,1.243832,-1.116935,-9.677260
44.640234,1.416221,-1.054085,-9.662295
44.673715,1.347385,-1.196844,-9.643740
44.706935,1.232010,-1.218692,-9.476289
44.740365,1.192954,-1.255055,-9.618151
44.774336,1.169460,-1.099127,-9.707338
44.807090,1.099876,-1.227521,-9.670675
44.840484,1.271965,-1.173201,-9.784254
44.873782,1.372525,-1.121275,-9.848751
44.907010,1.383748,-1.096883,-9.753578
44.940268,1.402903,-1.219440,-9.690279
44.974506,1.342597,-1.186369,-9.808946
45.007390,1.281542,-1.242635,-9.804905
45.040700,1.335863,-1.296955,-9.686238
45.073871,1.332421,-1.304886,-9.739511
45.107260,1.417717,-1.298452,-9.846506
45.140360,1.188913,-1.334516,-9.616355
45.173679,1.456325,-1.373722,-9.446810
45.207091,1.441810,-1.475330,-9.586576
45.240305,1.206272,-1.522168,-9.729784
45.273599,1.105113,-1.515434,-9.466712
45.306972,1.277951,-1.598935,-9.515346
45.340399,1.380007,-1.496280,-9.650923
45.373712,1.265381,-1.651609,-9.663642
45.406962,1.060220,-1.629312,-9.626231
45.440356,1.297554,-1.529501,-9.755972
45.473834,1.324190,-1.540125,-9.774378
45.507040,1.015627,-1.661935,-9.678906
45.540310,1.225576,-1.690816,-9.708236
45.573684,1.163474,-1.581427,-9.607825
45.607152,1.151054,-1.403202,-9.461924
45.640309,1.117384,-1.392428,-9.583284
45.673770,1.235303,-1.567061,-9.559640
45.707045,1.205075,-1.427594,-9.701352
45.757806,1.245628,-1.322544,-9.464767
45.773737,1.206421,-1.394223,-9.527018
45.806921,1.212856,-1.329727,-9.615607
45.840328,1.245029,-1.397067,-9.740259
45.874695,1.449741,-1.384197,-9.746694
45.907063,1.333319,-1.523964,-9.709583
45.940346,1.534289,-1.351276,-9.728288
45.973779,1.212258,-1.299200,-9.599745
46.006976,1.252511,-1.320599,-9.639699
46.040336,1.231412,-1.347385,-9.661248
46.073701,1.357860,-1.318055,-9.695367
46.107219,1.340352,-1.151802,-9.572809
46.140504,1.264333,-1.281393,-9.448456
46.173600,1.369233,-1.197443,-9.782159
46.206966,1.560477,-1.224379,-9.696564
46.240370,1.356364,-1.282141,-9.626381
46.273758,1.360254,-1.246376,-9.679205
46.307515,1.357710,-1.402903,-9.615457
46.340778,1.570652,-1.245628,-9.686687
46.373807,1.457223,-1.169460,-9.546023
46.407736,1.340352,-1.283936,-9.506068
46.440389,1.264782,-1.319701,-9.724397
46.473694,1.314913,-1.220189,-9.527766
46.507039,1.357860,-1.215550,-9.418078
46.540334,1.245778,-1.212557,-9.605132
46.574060,1.243982,-1.227072,-9.623837
46.606954,1.510496,-1.182479,-9.481676
46.640304,1.272713,-1.279746,-9.487961
46.673911,1.215999,-1.426247,-9.616205
46.707050,1.176343,-1.416071,-9.779616
46.740352,1.140130,-1.352623,-9.565925
46.773724,0.784877,-1.400508,-9.662146
46.817609,0.972530,-1.399162,-9.776174
46.840354,1.210611,-1.404848,-9.912798
46.873811,0.797447,-1.426696,-9.656759
46.907114,0.943199,-1.626918,-9.713473
46.940676,1.328231,-1.255504,-10.042837
46.973612,1.313267,-1.308179,-9.944971
47.007026,1.206571,-1.336611,-9.747891
47.040516,1.155543,-1.398862,-9.679504
47.073723,0.798345,-1.375668,-9.646433
47.107035,0.853264,-1.356813,-9.759713
47.140369,1.318953,-1.282739,-9.757019
47.174153,0.809718,-1.513339,-9.711977
47.207065,0.828573,-1.366539,-9.782459
47.240402,1.047351,-1.386442,-9.689381
47.273646,1.192654,-1.473534,-9.724397
47.307083,1.191307,-1.403651,-9.789642
47.340492,1.109752,-1.467997,-9.707039
47.373699,1.362499,-1.290820,-9.724098
47.407572,1.340202,-1.220338,-9.600194
47.440422,1.487002,-1.292316,-9.601989
47.473842,1.478323,-1.262089,-9.566524
47.507026,1.542669,-1.254158,-9.729784
47.540346,1.495232,-1.226025,-9.580590
47.573870,1.369682,-1.381354,-9.428404
47.607019,1.431933,-1.261789,-9.538092
47.640303,1.408589,-1.168861,-9.626830
47.673813,1.350228,-1.180384,-9.616654
47.706981,1.300696,-1.223481,-9.743252
47.740384,1.446898,-1.256103,-9.742504
47.773844,1.207020,-1.232160,-9.688483
47.807041,1.212856,-1.184873,-9.785302
47.840463,1.262687,-1.053935,-9.740559
47.873624,1.355765,-0.990936,-9.727839
47.919702,1.501817,-0.931677,-9.642991
47.940359,1.201932,-1.018470,-9.657208
47.973766,1.220638,-1.049296,-9.318266
48.007241,1.485805,-0.927786,-9.882420
48.040341,1.382850,-0.750010,-9.888855
48.073782,1.186669,-0.706165,-9.460726
48.106897,1.103467,-1.100175,-9.466862
48.140236,1.229466,-0.747915,-9.746544
48.173777,1.284984,-0.790115,-9.758516
48.207072,1.434328,-0.826927,-9.638652
48.240451,1.528154,-0.978815,-9.514747
48.273677,1.534738,-0.745372,-9.738314
48.307055,1.299350,-0.588995,-9.716616
48.340483,1.484907,-0.663666,-9.612614
48.373804,1.258647,-0.482599,-9.854437
48.407003,1.469793,-0.430672,-9.896187
48.440357,1.389734,-0.387426,-9.679804
48.473728,1.481016,-0.450874,-9.634013
48.507091,1.432233,-0.642417,-9.873142
48.540398,1.365342,-0.630895,-9.899180
48.573697,1.253709,-0.829022,-9.713623
48.606994,1.236350,-0.668006,-9.637006
48.640375,1.227671,-0.647206,-9.660649
48.674998,1.489995,-0.501902,-9.644488
48.706977,1.554341,-0.641070,-9.821964
48.740468,1.443306,-0.884689,-9.921327
48.773954,1.438218,-0.845483,-9.760760
48.807105,1.558232,-0.805678,-9.674865
48.840453,1.581427,-0.820642,-9.837976
48.873662,1.381953,-0.975971,-9.617552
48.907017,1.546859,-0.887233,-9.645835
48.940513,1.520372,-0.825281,-9.592263
48.981937,1.610158,-0.857304,-9.670526
49.007273,1.654752,-1.067104,-9.590168
49.040310,1.622878,-0.978366,-9.646433
49.073643,1.508850,-0.873765,-9.641196
49.106979,1.560477,-0.875561,-9.615906
49.140297,1.519624,-1.004403,-9.456087
49.173567,1.567510,-1.000962,-9.491254
49.206943,1.526807,-0.930031,-9.740409
49.240333,1.654752,-0.982406,-9.600493
49.273680,1.602227,-0.908482,-9.415235
49.306982,1.462311,-0.966693,-9.607975
49.340390,1.330176,-0.915516,-9.739960
49.373636,1.561973,-1.147013,-9.472099
49.407462,1.262089,-1.219740,-9.602139
49.440344,1.442558,-1.116187,-9.627878
49.473649,1.422207,-1.130253,-9.871347
49.507040,1.430886,-1.023558,-9.516992
49.540245,1.488798,-1.129505,-9.763454
49.573724,1.481166,-1.164072,-9.804007
49.606902,1.553743,-1.293065,-9.526569
49.640301,1.479669,-1.174248,-9.764801
49.673683,1.259096,-1.110351,-9.702250
49.706978,1.187866,-1.130702,-9.691177
49.740387,1.215699,-1.194151,-9.709134
49.773611,1.355915,-1.035978,-9.691775
49.807015,1.318953,-1.029244,-9.654065
49.840358,1.303989,-1.154046,-9.745647
49.873694,1.258946,-0.973876,-9.776174
49.907035,1.163624,-1.125465,-9.553056
49.940346,1.200136,-0.995275,-9.701652
49.973621,1.286331,-1.005750,-9.672621
50.007029,1.340801,-0.960708,-9.584631
50.040540,1.376565,-1.061866,-9.760910
50.073675,1.571101,-0.976271,-9.700005
50.107038,1.590854,-1.001111,-9.646583
50.145168,1.646821,-0.890974,-9.809843
50.173715,1.623925,-0.900252,-9.713922
50.207012,1.612852,-0.922698,-9.546023
50.240544,1.065009,-0.914917,-9.634761
50.273682,1.298153,-0.796400,-9.822713
50.307014,1.334366,-0.933473,-9.751034
50.340367,1.333319,-0.898606,-9.738613
50.373835,1.426097,-1.019966,-9.710181
50.407048,1.663880,-0.898606,-9.819421
50.440341,1.608961,-0.926439,-9.776174
50.473920,1.547607,-0.945594,-9.806551
50.507056,1.790777,-0.956069,-9.791288
50.541557,1.507204,-0.906836,-9.764202
50.573632,1.576189,-0.816302,-9.664839
50.606977,1.726730,-0.834559,-9.665139
50.640270,1.416819,-0.876908,-9.697462
50.673777,1.469943,-0.857903,-9.742205
50.707076,1.292616,-0.727564,-9.580590
50.740419,1.624075,-0.789666,-9.651521
50.774763,1.280794,-0.814806,-9.505170
50.807005,1.378212,-0.893518,-9.506816
50.840344,1.482812,-0.835606,-9.636856
50.873822,1.684381,-0.905041,-9.786050
50.906938,1.663730,-0.956368,-9.737117
50.940343,1.709820,-0.974325,-9.652269
50.973978,1.362798,-1.064410,-9.533453
51.007106,1.241737,-0.992432,-9.405807
51.040722,1.551348,-1.314164,-9.759414
51.073768,1.489097,-1.166018,-9.698958
51.106938,1.525311,-1.235751,-9.791138
51.140285,1.453781,-1.456325,-9.634163
51.173660,1.289773,-0.998418,-9.760162
51.206976,1.021014,-1.314164,-9.718262
51.240978,1.200436,-1.385245,-9.739511
51.273646,1.127111,-1.278400,-9.805504
51.307311,1.144320,-1.244730,-9.830045
51.340276,1.032237,-1.486703,-9.675763
51.373885,1.196994,-1.520672,-9.678158
51.407050,1.042263,-1.379109,-9.792784
51.440352,1.054983,-1.584569,-9.800416
51.473692,1.021163,-1.511693,-9.621144
51.507073,0.940955,-1.402454,-9.566973
51.540367,0.908931,-1.489995,-9.767045
51.573863,0.991385,-1.530249,-9.693421
51.607026,0.900851,-1.601778,-9.647032
51.640368,0.976869,-1.556736,-9.741905
51.674059,1.013083,-1.554940,-9.675913
51.707055,1.150754,-1.668519,-9.676512
51.740268,0.998867,-1.651759,-9.619049
51.773967,1.091945,-1.606716,-9.773181
51.806923,1.193702,-1.723288,-9.634761
51.840354,1.008593,-1.659989,-9.647930
51.873727,0.881696,-1.717452,-9.443368
51.907011,0.952178,-1.645773,-9.459529
51.940377,1.044208,-1.564218,-9.664839
51.974202,0.945294,-1.638890,-9.570714
52.007054,1.019218,-1.538180,-9.604384
52.040716,1.206272,-1.644576,-9.638801
52.073715,0.973577,-1.714609,-9.430798
52.107010,0.860148,-1.720744,-9.488560
52.140597,0.924644,-1.562871,-9.595405
52.173737,0.937363,-1.569455,-9.494695
52.207034,0.918209,-1.668519,-9.558892
52.240482,0.943798,-1.735709,-9.610519
52.273970,1.040767,-1.744837,-9.754625
52.307052,1.141925,-1.564667,-9.633265
52.340392,1.290072,-1.607465,-9.783057
52.386446,0.963701,-1.791974,-9.630571
52.406990,1.133246,-1.658792,-9.631469
52.440619,1.206421,-1.622578,-9.673968
52.473682,1.304288,-1.606417,-9.635958
52.506954,1.201783,-1.610906,-9.772582
52.540333,1.339604,-1.460066,-9.698359
52.573823,1.307580,-1.584719,-9.597201
52.607061,1.290521,-1.632904,-9.793832
52.640349,1.048847,-1.713112,-9.687136
52.674106,1.292616,-1.550451,-9.621593
52.707016,0.874813,-1.783295,-9.506367
52.740363,0.818697,-1.773269,-9.438430
52.773632,0.986596,-1.707875,-9.526420
52.807017,0.973427,-1.668220,-9.621293
52.840334,0.925242,-1.749476,-9.600792
52.873678,1.099277,-1.594895,-9.732628
52.907007,0.918658,-1.661486,-9.650923
52.940527,0.929881,-1.659540,-9.649276
52.973871,1.008145,-1.611655,-9.405658
53.007035,0.627902,-1.588161,-9.476439
53.040325,0.873466,-1.502565,-9.528664
53.073753,1.000213,-1.657296,-9.620994
53.107288,1.007845,-1.852131,-9.663642
53.140390,1.079225,-1.647270,-9.796675
53.173867,1.220937,-1.608811,-9.799518
53.207058,1.046453,-1.614049,-9.666485
53.240349,1.102120,-1.546410,-9.682946
53.273729,1.000812,-1.641134,-9.670975
53.307039,1.009641,-1.573346,-9.575054
53.341068,1.177690,-1.578284,-9.773779
53.377542,1.439416,-1.464107,-9.786649
53.406972,1.158087,-1.651160,-9.697462
53.440349,1.070246,-1.607315,-9.628775
53.473866,1.080572,-1.586215,-9.684293
53.507476,1.051840,-1.458271,-9.582835
53.540345,1.153448,-1.525759,-9.590317
53.573932,1.495981,-1.492838,-9.713473
53.607426,1.105412,-1.592500,-9.795178
53.640359,1.487601,-1.580828,-9.815679
53.673615,1.443905,-1.241887,-9.838724
53.707061,1.087156,-1.484009,-9.466712
53.740477,1.246077,-1.420860,-9.745048
53.774603,1.523664,-1.266728,-9.834235
53.807120,1.339903,-1.363547,-9.860423
53.840375,1.175745,-1.512890,-9.577897
53.873662,0.731604,-1.577536,-9.550363
53.907041,0.847428,-1.731668,-9.640597
53.940346,0.792210,-1.627367,-9.600643
53.973852,0.761383,-1.595792,-9.665139
54.006970,0.772906,-1.771324,-9.707488
54.040355,0.773205,-1.513638,-9.734124
54.073652,0.697037,-1.512441,-9.746844
54.106899,0.796699,-1.613301,-9.797872
54.140296,0.897259,-1.539976,-9.801763
54.173800,0.649750,-1.670165,-9.566225
54.207131,0.563256,-1.522318,-9.620096
54.240370,0.924943,-1.691414,-9.804307
54.273674,0.753901,-1.567061,-9.562933
54.307047,0.959062,-1.564367,-9.726792
54.340427,1.154795,-1.452434,-9.724397
54.373664,1.483859,-1.308927,-9.730233
54.407080,1.540574,-1.338706,-9.760611
54.440354,1.080721,-1.451836,-9.652120
54.473630,0.977019,-1.519774,-9.638053
54.507045,1.285433,-1.455427,-9.823162
54.546339,1.156441,-1.208816,-9.737865
54.573710,1.547757,-1.169310,-9.702998
54.606962,1.287827,-0.972530,-9.680402
54.640442,1.279148,-1.056330,-9.628027
54.673699,1.571401,-1.047351,-9.636108
54.707016,1.472187,-1.135491,-9.899330
54.740302,1.360105,-1.130403,-9.736069
54.773573,1.273461,-1.147911,-9.673070
54.806976,1.562871,-1.164222,-9.525372
54.840286,1.496729,-0.969686,-9.688782
54.873594,1.329877,-1.053337,-9.595555
54.907081,1.365342,-1.096135,-9.665438
54.940342,1.277502,-1.169909,-9.524325
54.973733,1.317457,-1.059173,-9.406705
55.007238,1.219740,-1.218393,-9.434389
55.040276,1.095087,-1.210163,-9.455339
55.073792,1.185471,-1.148959,-9.503524
55.107042,1.166167,-1.119778,-9.360316
55.140337,1.308777,-1.041515,-9.408052
55.173869,1.426397,-0.983902,-9.496491
55.207017,1.121724,-1.063961,-9.549315
55.240361,1.096584,-1.173500,-9.625034
55.274230,1.178588,-1.033883,-9.613661
55.307023,1.357710,-0.951729,-9.826903
55.340611,0.926439,-1.118282,-9.901425
55.373616,0.714994,-1.144619,-9.991809
55.407015,0.982556,-0.987793,-10.023534
55.440407,0.958912,-1.093591,-9.921178
55.473652,0.660524,-0.938710,-10.050918
55.506953,0.796400,-1.134742,-9.950208
55.540315,0.794005,-1.014130,-10.030267
55.573874,0.652294,-1.139531,-9.956045
55.608833,0.956218,-1.039121,-10.052714
55.645518,0.867630,-1.088802,-9.949460
55.673649,0.988092,-1.041665,-10.035355
55.706939,1.175296,-1.033584,-9.917287
55.740451,1.216747,-0.928534,-9.726193
55.773575,1.081919,-1.020415,-9.462672
55.807071,1.184873,-0.913121,-9.760312
55.840267,1.346038,-0.903394,-9.700005
55.873670,1.228868,-0.863290,-9.542731
55.907183,1.204326,-0.892919,-9.621742
55.940360,1.446449,-1.064560,-9.544526
55.974480,1.420560,-0.819894,-9.582236
56.007087,1.355765,-0.906387,-9.380368
56.040477,1.456774,-0.909081,-9.611417
56.073642,1.483560,-0.971781,-9.688782
56.106980,1.333169,-0.892321,-9.632217
56.140277,1.280345,-0.884240,-9.699557
56.174197,1.467997,-0.964449,-9.768841
56.206990,1.634550,-0.865984,-9.670675
56.240421,1.550451,-1.015028,-9.628476
56.273707,1.508850,-0.879452,-9.654215
56.306932,1.437021,-0.837402,-9.667234
56.340807,1.398413,-0.867181,-9.550363
56.373615,1.290970,-0.895014,-9.581189
56.407073,1.208666,-0.962055,-9.496491
56.440282,1.360105,-0.869276,-9.564130
56.473638,1.218393,-1.071743,-9.515795
56.507090,1.531296,-0.973427,-9.651970
56.540311,1.332570,-0.918059,-9.776024
56.573625,1.435375,-0.870922,-9.861321
56.606916,1.366839,-0.944097,-9.742205
56.640291,1.184873,-0.986895,-9.733226
56.673620,1.143272,-0.918209,-9.735321
56.707005,0.927637,-0.804331,-9.622790
56.740601,1.077878,-0.933173,-9.648379
56.773592,1.118880,-0.853863,-9.799967
56.807030,1.204177,-0.897109,-9.827052
56.840314,0.990636,-0.994377,-9.902173
56.873655,1.096284,-1.041066,-9.814931
56.907007,0.824533,-0.944247,-9.693720
56.940328,1.014579,-1.049596,-9.612764
56.974240,1.164521,-0.915067,-9.729186
57.006988,1.189661,-0.899354,-9.664091
57.040663,1.085061,-1.204326,-9.563830
57.073821,1.023558,-1.258348,-9.706590
57.106988,1.147312,-1.218393,-9.776323
57.140282,1.253409,-1.075035,-9.700305
57.173917,0.998418,-1.394223,-9.552607
57.207018,1.159882,-1.414425,-9.659901
57.240755,1.174248,-1.357561,-9.737267
57.273647,1.224678,-1.359656,-9.633714
57.306971,1.150605,-1.497028,-9.586576
57.340847,1.212856,-1.422805,-9.779167
57.373932,1.409487,-1.339454,-9.626830
57.407061,1.168262,-1.497028,-9.576999
57.440559,1.095386,-1.528154,-9.660500
57.473621,1.268224,-1.383299,-9.697462
57.506910,1.306533,-1.378212,-9.645984
57.540414,1.339903,-1.344692,-9.475541
57.573780,1.126961,-1.121424,-9.527018
57.607517,1.147163,-1.266279,-9.564429
57.640273,0.979563,-1.265081,-9.395183
57.673717,1.109902,-1.274808,-9.515496
57.707119,1.301445,-1.333468,-9.603486
57.740380,1.553892,-1.180234,-9.803409
57.773649,1.459468,-1.186519,-9.702250
57.807039,1.174547,-1.253559,-9.825257
57.850712,0.795053,-1.388986,-9.966071
57.873557,1.269271,-1.179935,-10.105987
57.907018,1.381504,-1.093890,-9.705692
57.940260,1.240091,-1.052439,-9.943923
57.973604,0.904292,-1.128906,-9.860273
58.006986,0.965347,-1.218243,-9.860123
58.040266,1.131750,-1.234105,-9.840371
58.073609,1.008294,-1.212557,-9.803259
58.106990,0.887532,-1.394373,-9.868653
58.140737,1.087455,-1.296656,-9.729036
58.173831,1.135191,-1.120975,-9.555001
58.207101,0.975672,-1.230065,-9.402216
58.240481,0.632092,-1.126512,-9.388299
58.273827,0.668605,-1.190859,-9.418527
58.307229,0.879302,-1.287977,-9.541534
58.340871,0.778742,-1.185471,-9.412841
58.373708,1.047201,-1.182479,-9.313328
58.407053,0.782034,-1.267027,-9.305846
58.440323,1.025353,-1.235751,-9.562334
58.473779,1.090598,-1.186519,-9.655861
58.507319,1.092094,-1.256402,-9.858178
58.540344,1.069797,-1.264184,-10.082792
58.573721,1.094489,-1.331673,-10.044035
58.607452,0.878404,-1.457373,-9.954847
58.640355,1.133845,-1.379558,-10.117360
58.673711,1.125614,-1.365941,-10.132324
58.706981,1.029843,-1.353670,-9.901575
58.740433,1.025952,-1.302193,-9.811190
58.773844,1.195647,-1.169160,-9.952303
58.807048,1.246675,-1.192505,-9.873741
58.840283,1.238595,-1.124118,-9.642692
58.874130,1.253260,-1.230065,-9.623987
58.925059,1.218543,-1.170208,-9.635210
58.940473,1.378960,-1.063961,-9.702849
58.973608,1.394822,-1.075334,-9.624885
59.006992,1.001261,-1.278699,-9.379470
59.040377,1.134593,-1.209115,-9.383660
59.073918,1.065757,-1.229766,-9.483173
59.106980,1.295609,-1.116336,-9.399822
59.140380,1.042712,-1.295609,-9.441722
59.173701,0.756595,-1.218393,-9.540486
59.207074,0.974176,-1.317008,-9.621443
59.240479,1.175445,-1.259245,-9.697312
59.273826,1.052888,-1.365342,-9.704046
59.307213,1.038971,-1.313566,-9.976246
59.340409,0.882594,-1.305635,-9.791437
59.373840,0.949335,-1.459168,-9.854587
59.407067,1.330475,-1.196395,-9.935992
59.440249,1.159882,-1.251165,-9.693720
59.473695,1.008743,-1.346487,-9.685041
59.507059,1.252063,-1.139381,-9.751483
59.540438,1.360105,-1.166766,-9.702699
59.573924,1.442259,-0.997221,-9.620545
59.606925,1.538778,-1.172901,-9.431995
59.640676,1.435226,-1.115887,-9.365105
59.673707,1.625122,-0.952777,-9.651371
59.707024,1.703535,-0.896661,-9.419425
59.740391,1.504809,-1.327632,-9.341311
59.773769,1.639787,-1.084462,-9.509360
59.806941,1.575890,-1.171106,-9.449653
59.840307,1.366839,-1.307430,-9.342957
59.873700,1.458570,-1.215101,-9.581339
59.907049,1.247573,-1.427893,-9.546921
59.940558,1.233208,-1.525311,-9.515047
59.973836,1.186818,-1.369233,-9.666037
60.014575,1.057227,-1.318055,-9.580291
60.040310,1.006648,-1.632904,-9.395332
60.073678,1.098828,-1.602377,-9.638951
60.107024,1.036427,-1.657745,-9.744749
60.140455,0.890376,-1.575441,-9.773031
60.173815,0.958014,-1.473085,-9.948113
60.206984,1.068301,-1.476228,-9.699108
60.240366,1.139232,-1.390482,-9.582536
60.274179,1.274509,-1.235602,-9.770936
60.307016,0.910877,-1.538479,-9.667234
60.340302,0.892919,-1.385544,-9.688932
60.373762,1.013382,-1.369682,-9.881822
60.407056,1.249369,-1.498973,-9.998543
60.440594,0.922249,-1.580230,-9.825706
60.473664,1.052140,-1.622130,-9.816428
60.506962,1.067403,-1.551049,-9.739212
60.541108,1.048698,-1.504809,-9.758516
60.573777,0.932874,-1.522767,-9.775874
60.606978,0.779640,-1.456774,-9.741157
60.640427,0.800141,-1.407392,-9.679953
60.673963,0.979563,-1.365642,-9.834086
60.707053,0.978815,-1.546261,-9.948113
60.740311,0.932425,-1.532344,-9.815679
60.774164,0.906088,-1.451088,-9.637006
60.807035,0.850271,-1.574992,-9.648528
60.840367,1.117234,-1.463358,-9.641944
60.873816,1.326285,-1.304587,-9.781561
60.907275,1.187117,-1.379109,-9.769889
60.940323,1.423853,-1.439864,-9.749088
60.973855,1.244880,-1.445551,-9.736518
61.007049,1.322395,-1.273611,-9.630571
61.040333,1.308628,-1.060370,-9.720806
61.074482,1.172452,-1.363547,-9.553056
61.116608,1.514985,-1.271067,-9.670675
61.140441,1.636046,-1.039420,-9.613512
61.173581,1.417268,-1.305036,-9.351337
61.206928,1.081320,-1.505109,-9.247336
61.240276,0.946192,-1.203279,-9.214264
61.273638,0.600068,-1.227222,-9.194961
61.306944,0.707213,-1.306832,-9.256015
61.340371,0.884390,-1.391829,-9.580441
61.373691,0.934520,-1.467997,-9.709882
61.406891,1.128757,-1.368185,-9.687884
61.440318,1.178289,-1.377463,-9.582386
61.473777,1.146864,-1.245478,-9.486764
61.506947,1.086857,-1.434477,-9.591514
61.540401,1.230215,-1.424002,-9.674267
61.573899,1.492688,-1.396767,-9.737117
61.606979,1.656248,-1.462610,-9.826903
61.640707,1.373872,-1.599234,-10.077255
61.673557,1.575142,-1.636495,-10.170034
61.706971,1.733314,-1.506007,-10.078153
61.740744,1.552695,-1.538180,-10.092220
61.773580,1.484009,-1.506156,-10.067828
61.806912,1.244880,-1.479520,-9.932850
61.840383,1.347535,-1.372375,-9.793682
61.873729,1.281692,-1.393475,-9.707188
61.906924,1.081021,-1.470092,-9.567871
61.940413,0.934371,-1.483710,-9.500831
61.973795,1.066356,-1.499722,-9.626680
62.007304,1.094638,-1.399311,-9.280107
62.040273,1.004852,-1.385394,-9.272027
62.073729,0.923596,-1.463658,-9.427057
62.107057,1.289473,-1.426845,-9.404910
62.140295,1.148809,-1.551199,-9.292378
62.173593,0.849972,-1.596840,-9.292827
62.207089,0.921950,-1.564218,-9.405358
62.243692,1.165120,-1.316708,-9.518489
62.273635,0.972978,-1.549702,-9.400420
62.306899,1.184574,-1.493736,-9.584182
62.340299,1.366839,-1.433430,-9.715568
62.373802,1.209564,-1.311920,-9.965322
62.406957,1.200885,-1.429389,-9.831841
62.440304,1.101821,-1.565415,-9.668580
62.473881,1.050793,-1.451537,-9.923123
62.506923,1.064710,-1.340352,-9.950657
62.540355,1.002458,-1.335114,-9.863565
62.573956,0.948138,-1.586814,-9.911301
62.606939,1.232459,-1.375668,-9.978790
62.640482,0.961157,-1.358608,-9.557246
62.673771,1.030890,-1.314464,-9.428852
62.706983,1.211809,-1.297404,-9.657656
62.740300,1.149108,-1.374171,-9.588521
62.773738,1.136389,-1.162576,-9.297915
62.806922,1.078028,-1.235602,-9.300608
62.840241,1.529501,-1.012484,-9.677709
62.873645,1.117085,-1.500919,-9.361812
62.906951,1.657445,-1.406943,-9.658554
62.941073,1.771922,-1.402603,-9.712725
62.973702,1.332271,-1.169310,-9.541833
63.006989,1.500769,-1.187716,-9.613661
63.040352,1.277502,-1.507802,-9.683395
63.073652,1.047950,-1.627966,-9.775874
63.107051,0.933024,-1.656398,-9.773630
63.140262,0.964449,-1.694706,-9.928810
63.173738,1.100175,-1.621381,-9.991660
63.206946,1.126961,-1.452285,-10.023234
63.240379,0.927487,-1.375967,-9.807898
63.273648,1.196695,-1.504660,-9.743402
63.314392,1.115738,-1.317756,-9.986572
63.340270,0.819894,-1.479669,-9.758665
63.373643,0.969387,-1.564966,-9.607526
63.407025,1.161379,-1.345889,-9.581937
63.440265,1.280345,-1.331373,-9.618899
63.473643,1.188165,-1.411133,-9.497838
63.507004,1.469494,-1.296656,-9.641645
63.540351,1.678395,-1.277203,-9.620994
63.573599,1.286630,-1.535786,-9.547669
63.607513,1.501966,-1.476377,-9.746245
63.640236,1.704284,-1.347235,-9.817026
63.673623,1.637094,-1.504959,-9.665438
63.707074,1.766834,-1.421758,-9.666186
63.740294,1.403501,-1.619137,-9.659303
63.773856,1.514686,-1.472038,-9.715119
63.807087,1.573346,-1.448843,-9.662894
63.840314,1.600132,-1.549403,-9.627578
63.874015,1.592650,-1.408888,-9.493947
63.907218,1.652657,-1.278400,-9.516094
63.940289,1.646222,-1.219440,-9.311682
63.973855,1.508102,-1.474881,-9.018083
64.006948,1.450040,-1.164222,-9.275917
64.040368,1.192205,-1.438967,-9.648079
64.073622,1.383299,-1.478622,-9.835133
64.107073,1.507204,-1.465453,-9.823611
64.140787,1.610457,-1.292616,-9.826154
64.173679,1.257599,-1.447197,-9.587624
64.206979,1.340053,-1.240091,-9.884216
64.240424,0.841742,-1.412779,-9.774378
64.273669,0.617876,-1.464556,-9.900976
64.306937,1.121574,-1.439864,-10.171231
64.340309,1.237248,-1.534139,-10.223008
64.373831,1.076980,-1.368934,-9.941080
64.406939,0.767668,-1.576339,-9.686538
64.440368,0.869575,-1.528004,-9.643889
64.473759,0.846530,-1.416819,-9.748190
64.506919,0.999914,-1.598785,-9.690728
64.540246,1.012035,-1.518726,-9.761808
64.573602,1.084911,-1.509748,-9.837677
64.606974,1.008294,-1.562272,-9.849349
64.640217,1.110650,-1.492688,-9.897385
64.673621,1.044508,-1.631407,-9.714222
64.706913,1.116336,-1.605070,-9.740409
64.740266,1.003805,-1.743939,-9.812986
64.773553,0.871820,-1.658942,-9.814931
64.807001,1.166616,-1.655500,-9.835432
64.840244,1.290072,-1.660737,-9.824059
64.873634,1.413378,-1.513938,-9.804007
64.906965,1.550900,-1.508401,-9.692374
64.940511,1.488498,-1.584719,-9.462971
64.973656,1.629462,-1.456325,-9.503375
65.006985,1.542519,-1.419663,-9.620994
65.040361,1.315661,-1.560177,-9.378572
65.073714,1.482662,-1.491042,-9.394584
65.106932,1.646222,-1.518876,-9.450102
65.140272,1.556885,-1.436273,-9.362411
65.173886,1.536833,-1.435674,-9.634911
65.207092,1.375817,-1.673008,-9.522529
65.240349,1.538329,-1.614797,-9.394584
65.273641,1.348433,-1.693509,-9.445313
65.307015,1.355017,-1.653106,-9.642543
65.340271,1.585018,-1.620932,-9.859375
65.373662,1.367437,-1.507353,-9.593909
65.406919,1.169460,-1.637243,-9.464467
65.440254,0.902347,-1.518726,-9.583733
65.473644,1.012035,-1.763841,-9.591963
65.507177,1.221386,-1.675851,-9.712575
65.540496,1.532643,-1.444503,-9.982980
65.573586,1.141177,-1.734062,-9.723948
65.607043,1.086258,-1.650113,-9.493947
65.640272,1.122472,-1.642032,-9.360915
65.673605,1.276604,-1.386891,-9.671124
65.706982,1.044358,-1.538479,-9.593609
65.740330,1.126362,-1.488049,-9.481227
65.773816,1.090897,-1.628714,-9.628925
65.807170,1.292915,-1.664030,-9.670675
65.840494,1.276005,-1.604472,-9.649576
65.873569,1.299948,-1.456924,-9.632367
65.906931,1.253409,-1.610158,-9.579543
65.940330,1.304737,-1.606866,-9.752231
65.973658,1.284535,-1.542669,-9.856831
66.007133,1.446149,-1.820406,-9.702400
66.040241,1.358758,-1.766984,-9.676661
66.073634,1.547308,-1.510945,-9.821366
66.106973,1.256103,-1.767283,-9.665139
66.140410,1.648616,-1.352024,-9.909655
66.173556,1.431933,-1.480118,-9.654664
66.206990,1.269122,-1.481764,-9.527018
66.240475,0.857155,-1.802898,-9.422567
66.273743,0.805079,-1.737804,-9.354031
66.307007,0.668605,-1.563021,-9.259307
66.340262,0.649600,-1.685129,-9.451000
66.373906,0.938860,-1.380456,-9.363758
66.406918,0.987643,-1.523066,-9.331585
66.440301,1.038522,-1.382850,-9.575054
66.473603,0.957266,-1.358758,-9.760461
66.507055,0.987344,-1.207319,-9.734573
66.540336,0.977767,-1.535037,-9.543629
66.582455,0.919406,-1.264333,-9.524175
66.606954,1.128906,-1.351874,-9.835732
66.640272,0.855359,-1.373722,-9.751183
66.673819,1.153747,-1.260592,-9.808048
66.707295,1.445401,-1.096733,-9.890651
66.741144,1.294411,-1.220039,-9.698958
66.773635,1.120826,-1.205973,-9.851444
66.807448,0.843837,-1.424900,-9.665887
66.840266,1.186220,-1.341998,-9.770787
66.873608,1.645923,-1.128457,-10.021738
66.906977,1.237547,-1.291419,-9.976995
66.940253,1.442708,-1.319402,-10.019344
66.973635,1.650711,-1.176942,-10.076507
67.006921,1.710419,-1.181281,-10.055856
67.040230,1.695904,-1.368934,-9.869701
67.073592,1.502415,-1.365642,-9.666485
67.106934,1.617042,-1.225576,-9.529263
67.140264,1.540424,-1.223181,-9.195110
67.173557,1.491192,-1.264333,-9.184336
67.206920,1.380905,-1.278849,-9.331435
67.240251,1.002009,-1.386143,-9.349691
67.273617,0.960558,-1.609560,-9.092455
67.307090,1.344392,-1.568258,-9.208279
67.340296,1.254158,-1.571251,-9.216808
67.373802,1.278699,-1.367886,-9.277863
67.406949,0.935268,-1.622279,-9.397577
67.440222,0.164907,-1.915280,-9.338019
67.473680,0.944247,-1.626619,-9.421969
67.507002,0.564154,-1.731369,-9.575353
67.540243,0.467036,-1.595044,-9.763753
67.573635,0.634486,-1.856919,-9.930755
67.607059,0.921651,-1.416071,-10.028771
67.640236,1.152849,-1.327183,-10.043586
67.673604,0.915516,-1.280644,-9.825556
67.710334,1.321048,-1.248172,-9.952902
67.740281,1.451237,-1.005900,-9.889753
67.773622,1.051691,-1.385843,-9.880325
67.806919,1.490144,-1.022510,-10.007522
67.840321,1.373722,-1.028646,-9.626531
67.873751,1.296357,-1.136987,-9.564130
67.906945,1.235452,-1.172602,-9.609920
67.940362,1.718949,-1.109453,-10.054210
67.973705,0.551883,-1.455128,-9.364356
68.006963,1.278250,-1.328680,-9.850097
68.040381,1.648317,-1.114541,-9.949311
68.073579,1.501068,-1.039570,-9.650174
68.107069,1.029693,-1.263735,-9.662595
68.140444,1.407093,-1.281393,-9.720806
68.173935,1.402154,-1.263286,-9.894392
68.207094,1.270319,-1.252960,-9.783656
68.240272,1.248621,-1.410534,-9.569666
68.273650,1.185621,-1.336162,-9.605431
68.306962,1.369682,-1.308478,-9.719908
68.340299,1.395420,-1.327782,-9.847254
68.374370,1.111099,-1.462161,-9.639699
68.407162,1.325238,-1.369383,-9.587923
68.440275,1.379259,-1.302343,-9.573707
68.473688,1.139082,-1.475180,-9.763304
68.507148,1.331373,-1.313715,-9.805055
68.540348,1.345889,-1.398563,-9.625483
68.573882,1.246825,-1.506904,-9.761509
68.607001,1.201483,-1.437171,-9.810143
68.640322,0.935418,-1.253858,-9.537344
68.673768,1.182479,-1.308478,-9.674716
68.707028,1.601928,-1.196246,-9.829596
68.740311,1.351725,-1.328979,-9.766148
68.774045,1.357112,-1.317457,-9.654065
68.819095,0.996173,-1.550600,-9.525073
68.840288,0.854611,-1.443306,-9.780364
68.873563,1.156441,-1.347535,-9.663942
68.906918,0.733400,-1.544764,-9.440076
68.940319,0.857155,-1.573496,-9.613213
68.973853,1.167664,-1.325837,-9.725145
69.006940,0.959660,-1.521719,-9.502776
69.040316,0.915366,-1.394074,-9.722751
69.074954,1.023857,-1.600581,-9.586426
69.106986,1.000962,-1.415473,-9.644039
69.140692,0.848924,-1.563769,-9.582835
69.173561,0.871820,-1.455876,-9.589569
69.206978,1.073539,-1.423104,-9.596303
69.240373,0.924943,-1.388088,-9.680851
69.273620,1.315362,-1.365941,-9.905465
69.306987,0.779939,-1.646970,-9.678158
69.340251,0.985100,-1.536983,-10.012610
69.373766,1.227371,-1.490144,-9.615158
69.407010,1.046453,-1.526657,-9.549315
69.440353,0.926290,-1.454829,-9.539139
69.473821,0.901150,-1.553892,-9.448755
69.506950,0.981807,-1.451986,-9.748789
69.540245,1.332720,-1.401107,-9.777371
69.574016,1.238445,-1.470242,-9.660949
69.606988,1.249369,-1.415772,-9.524175
69.640424,1.051840,-1.483111,-9.648379
69.674313,1.268523,-1.431335,-9.760012
69.707029,1.265680,-1.411283,-9.606928
69.740489,1.400209,-1.295160,-9.721704
69.773900,1.400957,-1.324789,-9.713773
69.807174,1.059622,-1.576788,-9.720955
69.840288,1.365342,-1.436423,-9.609621
69.873646,1.696502,-1.253858,-9.670825
69.918725,1.209863,-1.344991,-9.785152
69.940245,1.563619,-1.126362,-9.862817
69.973609,1.542968,-1.203129,-9.667533
70.007017,1.035978,-1.541472,-9.597500
70.040261,1.267326,-1.470092,-9.671124
70.073581,1.515733,-1.429539,-9.882719
70.106935,1.127111,-1.628415,-9.719609
70.140409,1.399760,-1.371478,-9.620395
70.173943,1.152550,-1.302343,-9.644338
70.206988,1.247573,-1.429090,-9.707039
70.240419,1.018769,-1.482962,-9.831691
70.274583,0.986596,-1.535636,-9.727390
70.307085,1.031489,-1.349181,-9.599445
70.341256,1.522767,-1.314763,-9.594657
70.373765,1.643828,-1.074736,-9.682497
70.407106,1.264782,-1.428791,-9.472249
70.441317,1.615246,-1.275856,-9.913247
70.473744,0.713198,-1.401257,-9.340713
70.506993,0.893219,-1.278250,-9.435886
70.541081,1.178588,-1.459767,-9.685340
70.575289,1.290072,-1.341549,-9.772133
70.606917,1.373872,-1.320150,-9.784703
70.640237,1.001710,-1.376565,-9.658105
70.673592,1.061118,-1.497178,-9.808646
70.706939,1.245927,-1.289922,-9.818972
70.740258,1.147761,-1.450339,-9.606179
70.773553,1.100624,-1.364295,-9.797722
70.806925,0.685963,-1.693360,-9.434389
70.840465,0.759139,-1.630809,-9.737715
70.873678,1.028646,-1.331673,-10.003332
70.906932,1.155992,-1.379409,-9.969213
70.940290,1.060370,-1.407691,-9.731430
70.973659,0.846381,-1.536534,-9.532405
71.011234,1.290221,-1.298901,-9.580890
71.040248,1.172452,-1.475031,-9.425860
71.073634,1.071294,-1.340352,-9.449204
71.106987,1.256253,-1.416520,-9.614559
71.140245,1.027748,-1.601329,-9.630870
71.174266,1.365043,-1.255504,-9.873292
71.207082,1.647718,-1.414575,-9.693870
71.240237,1.666424,-1.236500,-9.639849
71.273612,1.459468,-1.428641,-10.107782
71.306936,1.713412,-1.453183,-10.110326
71.340568,1.618538,-1.238295,-9.845159
71.373658,1.425499,-1.634101,-9.672920
71.407077,1.166018,-1.383898,-9.829147
71.440768,0.869126,-1.647718,-9.449802
71.473822,0.895912,-1.343794,-9.631469
71.506935,1.242785,-1.573047,-9.994652
71.540495,0.813309,-1.630360,-9.471800
71.573614,0.696738,-1.763392,-9.372736
71.607057,0.680426,-1.590106,-9.497389
71.640804,1.054683,-1.492389,-9.829596
71.673692,1.151203,-1.569904,-9.729635
71.707362,0.994078,-1.547607,-9.609023
71.740779,0.856856,-1.743191,-9.409100
71.773760,0.997221,-1.206870,-9.307941
71.806946,0.763927,-1.772072,-9.292079
71.840593,0.844734,-1.607913,-9.651521
71.873727,1.067702,-1.425798,-9.787696
71.907113,0.894865,-1.582325,-9.455788
71.940677,1.152849,-1.539976,-9.615158
71.973824,1.075185,-1.468895,-9.500232
72.006942,1.197293,-1.496878,-9.556498
72.040266,1.134892,-1.476228,-9.608125
72.073759,1.201034,-1.425050,-9.576400
72.106891,0.849972,-1.624075,-9.358371
72.140245,1.277801,-1.576638,-9.597201
72.183354,0.965197,-1.788233,-9.818672
72.207260,1.181132,-1.610906,-9.920280
72.240305,1.570203,-1.327632,-10.058700
72.273690,1.270768,-1.492090,-10.274934
72.306939,1.350977,-1.409038,-10.159260
72.340377,1.072491,-1.610457,-9.802960
72.373665,0.728163,-1.766236,-9.587175
72.406944,0.955770,-1.707426,-9.701053
72.440258,1.045855,-1.605070,-9.774827
72.473596,0.984052,-1.755761,-9.550363
72.507170,1.242036,-1.541322,-9.642543
72.540253,0.947988,-1.507952,-9.698060
72.573555,1.057377,-1.402454,-9.579244
72.606896,1.085809,-1.402154,-9.374233
72.640248,1.341998,-1.443456,-9.562484
72.673565,1.242336,-1.457373,-9.615457
72.706842,1.204925,-1.567660,-9.725894
72.740544,0.724721,-1.584719,-9.420772
72.773575,0.918209,-1.565116,-9.439926
72.806872,0.617277,-1.683034,-9.337870
72.840209,0.749412,-1.654602,-9.672172
72.873681,1.304587,-1.511394,-9.680552
72.906864,0.875411,-1.617042,-9.728587
72.940252,0.651994,-1.828338,-9.555151
72.973763,0.915067,-1.424002,-9.607077
73.006879,1.171704,-1.526358,-9.708834
73.040239,0.686412,-1.584120,-9.683694
73.074730,0.526594,-1.803796,-9.782459
73.107194,0.425285,-1.582624,-10.156267
73.140221,0.742528,-1.739599,-10.175271
73.173989,0.860447,-1.920218,-9.964425
73.209810,1.040018,-1.396917,-9.952004
73.240264,0.729809,-1.882359,-9.756421
73.274179,0.832913,-1.669117,-9.817924
73.306911,1.327483,-1.673307,-10.067379
73.340415,1.488349,-1.667322,-9.780064
73.373567,0.323977,-1.677198,-9.680851
73.406898,0.629698,-1.349630,-9.643141
73.440233,1.025802,-1.632605,-9.609023
73.473560,1.492988,-1.472038,-9.794281
73.507022,1.318953,-1.524862,-9.697910
73.540232,1.350977,-1.536833,-9.425560
73.573567,1.799606,-1.225875,-9.718262
73.606911,1.570503,-1.292316,-9.654963
73.640245,1.215250,-1.417717,-9.583883
73.673562,0.518064,-1.517080,-9.524175
73.707003,0.650199,-1.564218,-9.675913
73.740248,1.058574,-1.684381,-9.866259
73.773904,0.607850,-1.676450,-9.681001
73.807227,0.531681,-1.650562,-9.681899
73.841099,1.443157,-1.391829,-9.467610
73.873785,1.433879,-1.509448,-9.614260
73.907186,1.002159,-1.662234,-9.773031
73.941048,1.328979,-1.120676,-9.844112
73.974087,0.862692,-1.244131,-9.640747
74.007081,1.655051,-1.605220,-9.801164
74.040343,1.684830,-1.585766,-9.939285
74.073937,1.340053,-1.704433,-9.051603
74.106865,1.327932,-1.108705,-9.658854
74.140349,1.370879,-1.028197,-9.539439
74.173520,-0.011672,-1.509149,-9.355228
74.206860,0.440250,-1.316110,-9.413738
74.240184,0.629548,-1.426696,-9.436784
74.273497,0.690153,-1.592051,-9.959037
74.307057,0.736992,-1.592051,-9.773330
74.341635,0.763179,-1.191607,-9.700754
74.374103,1.271067,-1.346188,-9.857579
74.407998,1.098080,-1.456176,-9.799668
74.440541,0.738488,-1.560177,-9.841867
74.473889,0.272350,-1.567510,-9.590467
74.507484,1.419513,-1.045555,-9.540486
74.540490,0.649301,-1.652507,-9.441123
74.573728,0.932276,-1.339604,-9.428852
74.606901,1.002308,-1.357112,-9.283998
74.640179,0.865385,-1.304886,-9.507116
74.673488,-0.176728,-1.401855,-9.574156
74.706824,0.137223,-1.546410,-9.580740
74.740495,1.019667,-1.350528,-9.539738
74.773646,1.209265,-1.246526,-9.690428
74.807280,1.064859,-1.229317,-9.600643
74.842502,0.561610,-1.563170,-9.902622
74.880523,0.846979,-1.413078,-9.781860
74.910367,0.719184,-1.638441,-9.702549
74.941309,0.862392,-1.644127,-9.687585
74.974982,0.948287,-1.256402,-9.679804
75.007671,1.054085,-1.317756,-9.434689
75.040724,1.455876,-1.338407,-9.606479
75.073819,1.503912,-1.059622,-9.556348
75.108804,1.200436,-1.416370,-9.942876
75.140948,1.027299,-1.458869,-9.764502
75.175559,0.666210,-1.630809,-9.361513
75.207351,0.654838,-1.561375,-9.291630
75.240556,0.671149,-1.335563,-9.473745
75.274252,0.314250,-1.574842,-9.516394
75.307382,0.347321,-1.461114,-9.423316
75.340269,1.077429,-1.186220,-9.489458
75.373784,0.927637,-1.365941,-9.659602
75.407362,0.633439,-1.284385,-9.584780
75.440852,0.938710,-1.333019,-9.456536
75.473689,0.980461,-1.265381,-9.655861
75.507259,0.585104,-1.443606,-9.609322
75.540785,1.066056,-1.221086,-9.745796
75.573924,0.971482,-1.573496,-9.617552
75.607016,1.347684,-1.359656,-9.862218
75.641025,1.069648,-1.401556,-9.926116
75.673861,0.553679,-1.708623,-9.850247
75.707142,0.945893,-1.678994,-9.837527
75.740626,1.384197,-1.158536,-9.866259
75.773978,1.072192,-1.253559,-9.694319
75.807391,0.875262,-1.472786,-9.826603
75.840530,0.933772,-1.139980,-9.770188
75.874727,0.517316,-1.367288,-9.577448
75.907227,0.708859,-1.322544,-9.329190
75.940684,0.589144,-1.404998,-9.382762
75.973947,1.262388,-1.459917,-9.864762
76.008202,1.380456,-1.194450,-9.927612
76.041309,1.154495,-1.403501,-9.825406
76.073937,1.560776,-1.312219,-9.855933
76.107340,0.637329,-1.568258,-9.596153
76.140637,0.803433,-1.643379,-9.389945
76.174225,1.564816,-1.277951,-9.833637
76.207798,0.766172,-1.386592,-10.161804
76.241650,0.809868,-1.662383,-10.002284
76.275636,0.868827,-1.600282,-9.909206
76.308205,1.108256,-1.241887,-9.929707
76.341417,1.010838,-1.556736,-9.711977
76.374819,1.294411,-1.501966,-10.011412
76.408446,1.252212,-1.504361,-9.800865
76.440309,1.586515,-1.339604,-9.844112
76.474883,0.742528,-1.438069,-9.897983
76.507774,0.927786,-1.442408,-9.845458
76.541163,1.360703,-1.471888,-10.031016
76.574719,1.335114,-1.340801,-9.956493
76.606985,1.387040,-1.372824,-9.857131
76.640449,1.163923,-1.113942,-9.833786
76.673572,0.551734,-1.419812,-9.858777
76.706975,0.581812,-1.606118,-9.746993
76.740303,1.063512,-1.617042,-10.031914
76.773603,-0.651096,-1.926952,-9.383660
76.806882,-0.252897,-1.173650,-9.949760
76.840202,1.380606,-1.187716,-9.943923
76.873832,0.852366,-1.296207,-9.763903
76.906909,0.084997,-1.534588,-9.496940
76.940655,0.045342,-1.619735,-9.671573
76.973598,0.418402,-1.544614,-9.825406
77.007090,0.766621,-1.774466,-9.120438
77.040421,1.591004,-1.236500,-9.576251
77.073632,1.417268,-1.159434,-9.538391
77.106920,1.264633,-1.311620,-9.578944
77.140269,1.809931,-1.029394,-9.857879
77.173646,1.407990,-1.379409,-9.425111
77.206927,0.363333,-1.465902,-9.619946
77.240256,0.413015,-1.129056,-9.748939
77.273602,0.703023,-1.823699,-9.543778
77.306983,0.659925,-1.729573,-9.647181
77.340244,0.709457,-1.466800,-9.907710
77.373575,0.623113,-1.403352,-10.080547
77.406899,0.735046,-1.258048,-9.901724
77.440262,0.553080,-1.689768,-9.499634
77.473774,1.069797,-1.273312,-10.118257
77.506932,1.121125,-0.976869,-9.991061
77.540231,0.309462,-1.586066,-9.529562
77.573578,0.904741,-1.551498,-9.161590
77.607029,1.029095,-1.402603,-9.535548
77.640235,0.810765,-1.542519,-9.774528
77.673620,1.167963,-1.375518,-9.922076
77.706948,0.992282,-1.402903,-9.793083
77.740317,0.841742,-1.380755,-9.597500
77.773678,0.294198,-1.279896,-9.810891
77.806937,0.539463,-1.102270,-10.100899
77.840511,0.955620,-1.514237,-9.886161
77.873623,0.722775,-1.598785,-9.820917
77.906988,1.164072,-1.539078,-9.606179
77.940309,1.311321,-1.254457,-9.771984
77.973640,0.699880,-1.618688,-9.911301
78.006946,0.838898,-1.565415,-9.682348
78.040323,0.555774,-1.424002,-9.622341
78.073679,0.420048,-1.646222,-9.821815
78.107051,0.760037,-1.464256,-9.850995
78.140238,0.421095,-1.548505,-9.885114
78.173637,0.763478,-1.669267,-9.977593
78.206978,0.538565,-1.616144,-9.853389
78.240231,0.931078,-1.514087,-10.132623
78.273563,0.539612,-1.564367,-9.901126
78.306938,0.800440,-1.516631,-9.785003
78.340481,0.776647,-1.511992,-9.390544
78.373647,0.639574,-1.217944,-9.464767
78.406931,1.199688,-1.186220,-9.491702
78.440434,0.044294,-1.531296,-9.325599
78.473613,0.867779,-1.279746,-9.129417
78.506934,0.682970,-1.184424,-9.471351
78.540312,0.672645,-1.411133,-9.806551
78.573616,1.218393,-1.649664,-9.756421
78.606953,1.318205,-1.152550,-9.533303
78.640321,0.749562,-1.275556,-9.364207
78.673760,0.330262,-1.387340,-9.518040
78.706912,0.392663,-1.463807,-10.192181
78.740434,1.029693,-1.481016,-10.040294
78.786655,1.182329,-1.394074,-9.863565
78.806955,0.789666,-1.620334,-9.535997
78.840316,0.679678,-1.515883,-9.831991
78.873877,0.679379,-1.484608,-10.302318
78.906933,0.877806,-1.516781,-9.819869
78.940377,0.598123,-1.532344,-9.488410
78.973745,0.659476,-1.825195,-9.622191
79.006989,1.089101,-1.477874,-10.048075
79.040746,1.176194,-1.131301,-10.151329
79.073664,0.575976,-1.704583,-9.581488
79.106991,1.404249,-1.405895,-9.541683
79.140458,1.243533,-1.346038,-9.601989
79.173673,0.584954,-1.567809,-9.494396
79.206943,0.981658,-1.569605,-9.498586
79.240309,1.353969,-1.284236,-9.688483
79.273834,0.517914,-1.797511,-9.368846
79.306903,1.326136,-1.154046,-9.826603
79.340430,1.483261,-1.145666,-9.679504
79.373745,0.589444,-1.410385,-9.705991
79.406942,0.626405,-1.411732,-9.796226
79.440320,0.789815,-1.061866,-10.006923
79.473661,0.769763,-1.376715,-9.527168
79.506935,0.421245,-1.403202,-9.496042
79.540417,0.350015,-1.506007,-9.924470
79.573993,0.724571,-1.555090,-10.300672
79.606939,0.920903,-1.500021,-10.064087
79.640710,0.700628,-1.513638,-9.801763
79.673805,0.748364,-1.506007,-9.900527
79.707082,1.110351,-1.303540,-10.313990
79.740308,0.865535,-1.494185,-10.205948
79.773620,1.243383,-1.549104,-10.001835
79.806942,1.174248,-1.337808,-9.912498
79.840264,0.992582,-1.207619,-9.750435
79.878906,0.998717,-1.385843,-9.687286
79.906908,0.836953,-1.368784,-9.819121
79.940400,0.530634,-1.510646,-9.809245
79.973763,0.937214,-1.235003,-9.849199
80.006970,0.567745,-1.420710,-9.642543
80.041887,0.797447,-1.035828,-9.491104
80.073657,0.532130,-1.269122,-9.275618
80.106978,0.346872,-1.263435,-9.324402
80.140603,0.439202,-1.542519,-9.399073
80.173681,0.801488,-1.673906,-9.169671
80.206929,1.431784,-1.047351,-9.406256
80.240379,0.856706,-1.790029,-9.468807
80.273718,0.918508,-1.475031,-9.914593
80.306989,0.995425,-1.437470,-9.862817
80.340299,0.942152,-1.213006,-9.824808
80.373760,0.752704,-1.431784,-9.754775
80.407025,0.645410,-1.534588,-9.911750
80.440252,0.838449,-1.607913,-9.949311
80.473671,0.749562,-1.362948,-9.709134
80.506959,0.518064,-1.705930,-9.961581
80.540227,0.207704,-1.579182,-9.750734
80.573613,0.237483,-1.506156,-9.693870
80.606939,0.543204,-1.405895,-10.201609
80.640284,0.602014,-1.641882,-10.050918
80.673644,0.499209,-1.437321,-9.914145
80.706976,0.077365,-1.530847,-9.656010
80.740272,0.205609,-1.361452,-9.870748
80.773666,-0.089038,-1.503762,-9.828848
80.807295,0.528240,-1.701889,-10.179910
80.840234,0.737889,-1.418017,-9.958738
80.873858,0.596177,-1.648018,-9.509510
80.919188,0.548292,-1.443905,-9.647181
80.940296,0.713049,-1.552546,-10.045531
80.973558,0.753003,-1.508551,-10.095063
81.006976,0.934071,-1.440463,-9.882869
81.040464,1.085809,-1.183376,-9.329639
81.073747,0.056116,-1.463807,-9.244193
81.107290,0.356001,-1.212557,-9.793682
81.140232,0.721279,-1.349630,-9.917886
81.173558,0.558467,-1.480717,-9.524774
81.206986,0.257685,-1.441211,-9.209626
81.240341,0.473620,-1.465753,-9.471950
81.273614,0.472123,-1.569904,-9.833786
81.306966,0.986147,-1.540873,-10.130379
81.340405,0.849373,-1.387938,-9.315573
81.373613,0.518513,-1.510346,-9.560688
81.406903,0.492625,-1.218543,-9.651222
81.440309,0.387126,-1.423853,-9.907111
81.473649,0.734897,-1.840159,-9.927313
81.506934,0.707512,-1.987707,-10.154920
81.540307,0.968040,-1.801402,-10.449118
81.573607,1.267476,-1.376865,-10.555065
81.607163,0.816302,-1.672709,-10.433106
81.640358,0.958463,-1.497028,-10.089227
81.673928,1.202531,-1.079375,-9.988667
81.706941,0.826628,-1.231861,-9.633863
81.740306,0.543204,-1.512292,-9.489757
81.773619,0.219676,-1.425648,-9.494396
81.806978,0.375305,-1.629312,-9.405059
81.840323,0.768716,-1.213155,-9.609621
81.873601,1.015327,-1.176194,-9.316471
81.906935,0.606204,-1.509598,-9.259906
81.940338,0.763329,-1.169759,-9.673818
81.973620,0.930330,-1.526358,-9.627429
82.011010,1.705331,-1.243832,-9.993306
82.040282,0.403288,-1.295609,-9.244792
82.073582,0.745820,-1.236799,-10.151628
82.106953,0.698683,-1.272414,-10.213580
82.140270,0.421245,-1.540424,-9.995999
82.173577,0.666210,-1.365642,-9.605132
82.206985,1.130552,-1.368634,-9.546023
82.240345,0.646458,-1.463658,-9.869252
82.273670,0.495318,-1.268972,-9.967417
82.306983,0.970883,-1.679742,-10.448819
82.340236,0.335051,-1.882508,-9.866708
82.373685,0.619372,-1.150904,-10.622405
82.407032,0.223417,-1.638590,-10.264010
82.440414,0.370965,-1.579182,-10.241713
82.473642,0.499508,-1.491042,-10.050170
82.506919,0.247360,-1.324190,-10.165395
82.540360,1.064410,-1.062615,-9.910852
82.573751,0.670999,-1.454529,-9.508911
82.606936,1.338107,-0.950532,-9.420173
82.640401,1.440164,-1.413078,-9.206184
82.673691,0.677583,-1.103018,-9.006560
82.706923,1.071443,-0.836055,-9.131662
82.740374,0.943948,-1.155692,-9.594208
82.773767,0.135726,-1.670614,-9.717663
82.806970,0.180170,-1.575591,-9.843363
82.840496,0.612638,-1.355316,-9.896038
82.873715,0.521206,-1.309974,-9.942427
82.906910,0.617427,-1.425798,-10.244257
82.940347,0.640023,-1.478323,-10.231088
82.973638,0.653491,-1.383299,-10.072167
83.006991,0.878703,-1.297704,-10.033709
83.040350,0.890076,-1.306832,-9.642243
83.073745,0.645560,-1.292915,-9.656310
83.106935,0.254243,-1.658792,-9.760162
83.140361,0.201120,-1.245329,-10.063189
83.180243,0.076916,-1.431036,-9.917137
83.206898,0.973427,-1.325238,-10.123495
83.240343,0.184959,-1.404399,-9.423016
83.273551,0.227457,-1.543717,-9.701502
83.306976,0.633888,-1.129804,-10.300523
83.340260,0.262025,-1.628714,-10.403776
83.373625,0.548890,-1.257899,-10.239618
83.406977,0.778742,-1.093291,-9.840670
83.440235,0.885288,-1.164072,-9.796525
83.473641,0.559665,-1.279597,-9.556199
83.506979,0.145603,-1.673607,-9.564878
83.540377,0.350763,-1.309525,-9.683245
83.573648,-0.161315,-1.680490,-9.356575
83.607006,-0.110586,-1.685279,-9.634761
83.640231,0.608149,-1.568408,-10.011263
83.673600,0.888430,-1.460515,-10.092968
83.706882,0.397601,-1.632605,-9.874040
83.740231,0.871820,-1.687374,-10.151478
83.773697,0.915516,-1.630958,-10.001386
83.807045,0.692996,-1.653405,-10.170633
83.840545,1.252811,-1.514387,-10.360230
83.873607,0.936914,-1.243982,-10.128732
83.906936,-0.000599,-1.743640,-9.477786
83.940324,0.410022,-1.495232,-9.897684
83.973746,0.153384,-1.985014,-9.990313
84.006944,0.508786,-1.340651,-10.304114
84.040319,0.909979,-1.451387,-10.040742
84.073723,0.711103,-1.417119,-9.316171
84.106914,0.515520,-1.457822,-9.597201
84.140259,-0.126598,-1.367288,-9.706290
84.173691,1.617640,-1.280944,-10.141901
84.206957,1.329278,-1.397964,-9.545125
84.240895,1.910641,-1.142075,-9.637904
84.273600,1.805741,-1.385095,-9.661996
84.306921,1.081170,-0.770063,-9.772433
84.340253,1.849736,-1.148061,-10.076956
84.373598,1.357262,-0.904292,-9.756720
84.406887,0.526294,-1.092543,-9.649875
84.440264,0.600816,-1.164671,-9.776323
84.473584,0.246612,-0.986895,-9.965622
84.506967,0.987494,-0.850571,-10.138908
84.540313,0.710205,-1.074137,-9.955895
84.573594,0.659925,-0.768716,-10.009916
84.606987,0.673543,-1.007247,-10.178863
84.640281,0.089486,-1.195498,-9.894691
84.673745,0.490380,-1.129355,-9.840071
84.707113,0.381739,-0.754649,-9.437532
84.740250,0.318739,-0.883791,-9.764352
84.773835,0.336846,-0.752704,-9.840221
84.807043,0.188550,-1.227521,-9.518638
84.840314,0.659776,-1.145816,-9.695217
84.873608,0.890525,-0.921052,-9.793832
84.907017,1.230664,-0.870323,-9.844411
84.940428,0.881696,-1.005002,-9.753727
84.973995,0.906687,-0.975073,-9.783656
85.006900,0.817948,-1.153149,-9.594657
85.040268,0.840544,-1.151652,-9.513850
85.073606,1.263585,-0.789666,-9.776473
85.106978,0.976121,-1.103766,-9.582236
85.140370,0.823934,-1.087455,-9.760910
85.173600,1.095087,-0.959062,-9.634911
85.206977,1.266129,-0.752255,-9.546322
85.240344,1.147911,-0.873915,-9.348494
85.273694,0.468233,-0.947539,-9.636258
85.308044,0.697186,-0.746868,-9.741905
85.340299,0.958613,-0.623113,-9.647481
85.373594,0.996173,-0.817350,-9.662445
85.406948,0.683270,-1.014280,-9.787098
85.440336,0.748664,-0.925542,-9.897534
85.473557,0.988691,-0.843088,-9.987918
85.507051,0.819295,-0.681474,-9.933748
85.540279,0.902048,-0.852815,-10.088628
85.573680,0.618175,-0.816901,-10.168238
85.607253,1.044208,-1.083565,-10.286456
85.640317,1.759651,-0.831566,-10.341076
85.673736,1.680939,-0.668904,-9.940182
85.706930,1.230215,-0.821989,-9.938087
85.740333,1.357112,-0.855359,-10.133371
85.773773,1.225875,-0.582859,-9.933299
85.806949,1.051691,-0.770212,-9.442171
85.840920,1.081021,-0.641519,-9.312281
85.873738,0.736992,-0.641070,-9.120139
85.906984,0.885437,-0.787272,-9.371090
85.940271,1.340053,-0.889178,-9.629374
85.973618,1.043460,-0.871820,-9.690428
86.006903,1.281991,-0.802685,-9.444116
86.040313,1.470841,-0.709607,-9.464318
86.073588,1.149407,-0.837252,-9.738015
86.106906,1.513339,-0.676236,-9.880026
86.140362,1.614049,-0.807922,-9.944672
86.173681,1.170657,-0.965796,-9.802810
86.207071,1.385095,-0.723374,-9.909655
86.240353,1.457373,-0.946791,-9.734872
86.273642,1.428791,-0.916114,-9.920430
86.306897,1.539078,-0.960857,-10.048674
86.340285,1.610457,-0.767818,-9.919831
86.373740,1.445850,-0.717388,-9.765100
86.410055,1.243832,-0.907136,-9.513999
86.440479,1.361601,-0.828423,-9.708086
86.473682,1.349480,-0.833810,-9.840371
86.506977,1.681837,-0.759288,-9.775725
86.540388,1.655051,-0.674291,-9.808347
86.573743,0.760934,-0.917760,-9.495892
86.606985,1.097481,-0.843088,-9.840670
86.640312,1.364893,-0.544251,-9.799518
86.673644,1.340352,-0.786224,-9.490206
86.706985,1.331673,-0.760485,-9.473596
86.740265,1.597438,-0.634187,-9.944821
86.773736,1.214652,-1.100774,-9.818672
86.806983,1.605220,-0.738638,-9.854736
86.840367,1.052289,-0.769913,-9.831841
86.873718,1.487750,-0.599470,-9.806252
86.907125,1.187117,-0.921202,-9.859974
86.940568,1.179785,-0.758241,-9.919232
86.973572,1.528752,-0.893967,-10.016949
87.006939,1.708324,-0.474069,-9.888256
87.040353,1.434328,-0.780388,-9.696264
87.073721,1.408439,-0.604558,-9.807599
87.106977,1.555688,-0.533926,-9.572210
87.140406,1.858715,-0.564603,-9.604234
87.173583,1.572448,-0.628051,-9.627279
87.206896,1.737055,-0.423789,-9.866259
87.240317,1.462012,-0.434264,-9.552308
87.273604,1.379708,-0.664714,-9.475691
87.306936,1.563619,-0.989888,-9.741756
87.340420,1.340053,-0.792210,-9.859076
87.373894,1.613600,-0.883043,-9.250777
87.407081,1.362649,-0.602163,-9.629524
87.440319,1.690816,-0.598422,-9.915940
87.473735,1.157189,-0.832763,-9.591514
87.506946,1.342148,-0.766770,-9.834684
87.540551,1.653854,-0.654389,-9.921327
87.584858,1.551947,-0.474817,-9.804905
87.606987,1.726880,-0.499957,-9.974151
87.640243,1.376565,-0.637329,-9.661098
87.673688,1.714010,-0.500107,-9.878529
87.706993,1.482962,-0.537817,-9.836779
87.740398,1.151951,-0.549040,-9.622191
87.773591,1.308179,-0.592287,-9.724547
87.807018,1.563769,-0.594082,-9.793083
87.840275,1.568707,-0.546047,-9.832589
87.873609,1.640386,-0.439052,-9.899480
87.906958,1.293663,-0.452371,-9.692523
87.940267,1.719697,-0.553679,-9.741606
87.973634,1.734511,-0.493822,-9.736069
88.006934,1.545512,-0.409722,-9.816727
88.040277,1.686925,-0.360041,-9.812387
88.073647,1.582923,-0.572983,-9.699856
88.107011,1.353969,-0.554577,-9.650474
88.140307,1.443905,-0.748215,-9.705243
88.173677,1.690965,-0.577472,-9.850397
88.207067,1.768331,-0.679229,-9.870149
88.240389,1.686177,-0.444589,-9.697462
88.273796,1.621082,-0.593933,-9.709732
88.306942,2.225041,-0.880349,-9.588372
88.340304,1.658493,-0.538864,-9.645535
88.373769,1.792872,-0.364830,-9.620096
88.406934,1.747381,-0.443991,-9.489907
88.440418,1.567211,-0.620869,-9.538092
88.473601,1.469494,-0.752405,-9.544526
88.507092,1.609260,-0.694792,-9.590766
88.540367,1.803347,-0.581512,-9.637904
88.573637,1.777758,-0.725170,-9.851893
88.607061,1.669417,-0.653491,-9.983728
88.652448,1.878169,-0.779340,-9.739062
88.673632,2.159946,-0.537517,-9.739810
88.706979,1.880114,-0.627902,-9.775425
88.740573,1.573945,-0.645560,-9.637155
88.773602,1.789430,-0.816452,-9.683245
88.806966,1.859912,-0.594082,-9.824059
88.840263,1.557783,-0.586151,-9.587923
88.873675,1.684531,-0.581512,-9.678756
88.906919,1.668968,-0.588995,-9.708236
88.940271,1.693210,-0.575826,-9.761060
88.973599,1.516931,-0.744324,-9.824957
89.006925,1.740946,-0.664864,-9.703148
89.040313,1.734960,-0.672795,-9.722751
89.073602,1.626320,-0.614584,-9.786948
89.107047,1.768480,-0.633439,-9.831093
89.140345,1.877420,-0.668006,-9.970410
89.173859,1.803497,-0.905489,-9.913097
89.206972,1.767732,-0.677733,-9.844710
89.240309,1.747979,-0.654838,-9.842466
89.273745,1.716105,-0.629997,-9.770038
89.306975,1.430287,-0.633588,-9.629524
89.340327,1.772670,-0.489332,-9.784254
89.373655,1.787635,-0.487088,-9.651671
89.406975,1.770126,-0.567745,-9.395033
89.440268,1.860211,-0.591838,-9.601690
89.473670,1.870088,-0.665313,-9.600194
89.507027,1.746782,-0.506691,-9.528365
89.540227,1.737055,-0.621766,-9.653317
89.573671,1.737355,-0.651096,-9.605431
89.607036,1.795715,-0.694792,-9.653167
89.640230,1.755611,-0.760785,-9.548866
89.673733,1.746184,-0.644213,-9.638801
89.716857,1.783145,-0.662320,-9.564728
89.740393,1.869340,-0.759288,-9.621593
89.773636,1.632305,-0.614733,-9.686987
89.807042,1.628415,-0.640771,-9.721105
89.840266,1.578883,-0.645260,-9.538241
89.873695,1.776411,-0.597075,-9.607227
89.906925,1.743191,-0.653640,-9.617253
89.940322,1.664179,-0.697336,-9.821964
89.973836,1.597887,-0.637479,-9.858178
90.007026,1.602676,-0.571636,-9.784254
90.040699,1.275706,-0.814207,-9.599894
90.073695,1.465154,-0.694792,-9.709882
90.106975,1.578733,-0.809568,-9.828848
90.140421,1.404848,-0.794005,-9.781262
90.173550,1.386592,-0.732353,-9.859974
90.206940,1.480567,-0.833810,-9.915641
90.240331,1.423853,-0.807473,-9.818373
90.274094,1.298452,-0.980311,-9.589419
90.306975,1.440912,-0.928983,-9.768692
90.340361,1.608512,-0.733250,-9.943923
90.374043,1.250117,-0.887083,-9.527168
90.407034,1.244131,-0.965197,-9.731730
90.440234,1.443157,-0.972978,-9.799368
90.473607,1.630510,-0.837252,-9.392938
90.506979,1.795865,-0.774402,-9.438729
90.540268,1.520522,-0.833960,-9.477486
90.573743,1.711616,-0.945743,-9.373185
90.606990,1.720295,-0.995724,-9.650623
90.640221,1.642631,-0.993629,-9.629075
90.673568,1.656996,-1.133396,-9.641944
90.706886,1.784941,-0.926290,-9.758067
90.740268,2.130766,-0.930629,-9.814482
90.773548,1.944161,-1.023857,-9.542132
90.806930,1.852280,-1.022660,-9.430947
90.840403,1.815468,-0.935418,-9.976995
90.873693,1.833425,-1.077280,-9.785601
90.906913,2.002372,-1.128906,-9.702400
90.940414,1.655799,-1.069648,-9.681001
90.973769,1.710419,-1.076831,-9.560089
91.006985,1.590256,-1.220189,-9.606329
91.040294,1.668668,-1.139531,-9.590317
91.073851,1.628863,-1.275556,-9.531507
91.106949,1.549253,-1.162576,-9.544377
91.140471,1.532044,-1.201334,-9.465515
91.173823,1.397665,-1.299050,-9.427805
91.206984,1.469643,-1.289174,-9.553355
91.240291,1.447047,-1.268224,-9.552757
91.273632,1.447796,-1.406644,-9.688782
91.307095,1.375069,-1.279298,-9.712127
91.340671,1.525011,-1.317008,-9.685340
91.373709,1.495532,-1.270918,-9.613961
91.406984,1.314314,-1.344542,-9.590168
91.440253,1.239343,-1.196096,-9.762407
91.473671,1.456475,-1.155842,-9.788444
91.506895,1.500320,-1.198341,-9.722901
91.540346,1.340202,-1.136688,-9.616954
91.574638,1.532194,-1.230364,-9.680851
91.606992,1.261490,-1.032985,-9.711528
91.640381,1.624225,-1.155094,-9.859076
91.673701,1.278100,-1.176343,-9.613811
91.707024,1.339903,-1.199837,-9.670526
91.740293,1.135191,-1.386741,-9.649276
91.773709,1.065009,-1.232459,-9.459829
91.807096,1.607764,-1.163324,-9.681450
91.840433,1.197593,-1.258048,-9.788893
91.873782,1.577087,-1.187417,-9.848751
91.910153,1.378960,-1.275706,-9.729186
91.940286,1.691714,-1.206421,-9.872843
91.973591,1.576638,-1.131600,-9.809694
92.006945,1.529351,-1.257899,-9.724547
92.040310,1.541173,-1.205075,-9.524025
92.073995,1.476377,-1.181880,-9.519985
92.107022,1.418316,-1.341100,-9.662295
92.140796,1.467399,-1.329578,-9.598248
92.173672,1.613899,-1.245029,-9.543928
92.207058,1.651460,-1.181880,-9.682946
92.240513,1.653255,-1.161678,-9.564728
92.273675,1.346188,-1.201184,-9.437532
92.307027,1.522318,-1.178289,-9.562334
92.340428,1.234105,-1.255804,-9.520135
92.373691,1.519923,-1.100624,-9.553206
92.407049,1.513040,-1.111697,-9.403413
92.440466,1.369083,-1.179186,-9.429900
92.473670,1.461563,-1.080272,-9.547819
92.507060,1.325986,-1.159284,-9.495743
92.540508,1.435674,-1.293813,-9.510857
92.573865,1.261191,-1.018470,-9.422717
92.606965,1.262388,-1.121275,-9.649276
92.640532,1.365043,-1.243683,-9.548118
92.673608,1.646521,-1.109154,-9.601540
92.706991,1.417119,-1.069199,-9.409698
92.740330,1.802898,-0.954123,-9.577149
92.773722,1.783894,-0.920903,-9.751932
92.806989,1.404100,-1.077729,-9.722153
92.840426,1.385544,-1.368784,-9.835732
92.873809,1.386592,-1.154346,-9.696115
92.907450,1.277651,-0.971931,-9.553206
92.940540,1.049745,-0.944846,-9.510557
92.973557,1.105861,-1.051242,-9.581039
93.006942,1.435824,-1.082068,-9.661847
93.045263,1.638291,-1.054983,-10.031914
93.073612,1.711616,-1.035230,-9.996448
93.106914,1.368485,-1.244281,-9.984028
93.140308,1.359805,-1.067104,-9.846057
93.174337,1.176194,-1.098230,-9.626980
93.206936,1.352024,-1.079225,-9.751932
93.240386,1.210013,-1.007696,-9.863715
93.274328,1.521869,-1.237996,-9.744300
93.306991,1.229317,-1.105113,-9.502028
93.340387,1.127260,-0.982107,-9.506816
93.373642,1.539826,-0.997071,-9.774378
93.406979,1.435375,-1.097930,-9.540636
93.440363,1.270918,-1.224079,-9.408501
93.473723,1.432682,-0.888430,-9.601840
93.506942,1.563918,-0.948587,-9.629374
93.540315,1.443755,-1.040318,-9.593909
93.574103,1.761148,-0.990038,-9.443966
93.606984,1.478023,-1.110650,-9.431845
93.640338,1.716704,-0.931527,-9.795029
93.674238,1.532194,-0.942302,-9.528066
93.706912,1.739150,-0.931827,-9.560538
93.740566,1.891038,-1.030292,-9.808646
93.773662,1.984565,-0.870922,-9.933748
93.807039,1.841356,-0.776946,-9.585978
93.840848,1.856171,-1.034033,-9.838425
93.873710,1.761746,-0.936765,-9.789642
93.906946,1.633652,-1.017123,-9.702100
93.940268,1.689768,-0.870323,-9.654364
93.973620,1.541771,-1.156291,-9.265293
94.007382,1.676600,-1.053935,-9.523726
94.040309,1.704284,-0.919855,-9.448156
94.073673,1.635747,-1.080272,-9.507864
94.107011,1.698747,-1.085211,-9.768542
94.146337,1.550451,-1.246226,-9.876135
94.173667,1.465603,-0.919855,-9.650324
94.206953,1.644726,-1.029543,-9.732029
94.240225,1.340352,-0.943499,-9.700155
94.273584,0.877057,-1.514686,-9.670825
94.306984,1.180084,-1.114690,-9.659901
94.340243,1.443007,-1.166167,-9.722602
94.373885,1.484608,-0.848027,-9.825257
94.406971,1.544315,-1.273761,-9.792784
94.440379,1.551049,-1.110800,-9.877332
94.473685,1.202531,-0.847278,-10.046279
94.507206,1.355167,-0.941254,-10.015004
94.540324,1.289174,-1.242934,-9.742953
94.573720,1.020266,-1.194450,-9.435137
94.606934,1.296806,-0.945594,-9.848152
94.640427,1.063662,-1.173650,-9.642243
94.673621,0.960558,-1.143871,-9.729635
94.706939,2.038736,-0.726217,-10.048674
94.740257,1.798110,-0.895763,-9.945570
94.773808,1.465603,-1.027897,-10.007372
94.806965,1.059921,-1.261191,-9.687585
94.840307,2.075997,-0.900701,-9.963377
94.873674,2.112509,-0.791162,-10.034158
94.906926,2.166980,-0.920454,-10.024880
94.940317,1.519474,-1.324490,-9.966819
94.973674,2.056094,-0.849224,-10.062441
95.007197,2.347299,-0.550237,-9.930156
95.040418,1.993094,-0.941853,-9.914145
95.073624,1.444354,-1.005152,-9.520284
95.107084,1.238295,-1.209564,-9.368995
95.140347,1.411732,-0.930330,-9.623089
95.173742,1.826691,-0.778892,-9.600194
95.206984,1.654752,-1.006947,-9.320062
95.240398,1.783894,-0.753003,-9.397727
95.286792,0.975971,-1.249818,-8.958974
95.306904,2.113856,-0.792659,-9.678457
95.340277,1.757556,-0.998118,-9.445014
95.373787,1.609560,-1.073539,-9.021225
95.406950,1.450040,-0.851319,-9.173711
95.440292,1.514237,-1.125016,-9.500382
95.473561,1.519474,-1.120377,-9.850995
95.506927,1.053486,-1.115738,-9.355378
95.540424,1.066206,-1.180084,-9.635809
95.573564,1.655799,-1.068750,-10.085935
95.606914,1.133396,-1.040617,-9.414337
95.640299,1.552396,-0.958912,-9.648379
95.673711,1.644875,-0.904292,-9.883767
95.706991,1.462012,-1.213305,-9.973253
95.740314,1.677049,-0.564154,-10.022037
95.773943,1.031938,-0.532430,-9.826154
95.806953,0.882145,-0.883941,-9.426009
95.840311,0.563555,-0.780987,-9.467161
95.873701,0.753752,-0.607251,-9.615158
95.907053,0.818846,-0.856407,-9.538541
95.940268,0.859998,-1.158386,-9.544826
95.973602,1.415323,-0.985698,-9.830344
96.007180,1.152550,-0.938561,-9.638203
96.040271,1.262986,-1.334067,-9.371539
96.073694,0.662320,-0.012869,-10.010066
96.106965,1.794818,-0.634486,-9.546322
96.140258,1.328231,-0.841592,-9.683844
96.173590,1.061268,-0.912074,-9.873741
96.206980,1.167514,-0.482000,-9.685789
96.240242,1.481465,-0.549938,-9.623239
96.273616,1.877420,-0.649001,-9.699108
96.306978,1.814421,-0.644213,-9.872394
96.342451,1.728975,-0.949484,-9.553355
96.373683,1.743789,-0.813160,-9.669179
96.407026,1.698896,-0.912373,-9.907111
96.440230,1.717302,-1.170956,-9.855036
96.473764,1.386741,-0.949784,-10.115863
96.506951,1.285882,-0.880649,-10.134269
96.540342,1.336910,-0.865086,-9.727689
96.574026,1.873530,-0.889178,-9.712875
96.606964,1.446299,-0.901150,-9.501280
96.640242,1.536534,-0.994377,-9.603785
96.674058,1.802898,-0.988990,-9.247186
96.707049,1.965560,-0.627303,-9.366302
96.740383,1.712514,-0.672944,-9.397727
96.773634,1.905553,-0.861195,-9.472847
96.806896,1.996387,-0.788169,-9.395482
96.840266,1.673307,-0.897858,-9.363907
96.873708,2.070909,-1.034781,-9.395332
96.907158,2.000427,-0.989738,-9.500831
96.940451,2.007610,-0.909829,-9.718262
96.973636,1.753666,-0.906836,-9.736069
97.007038,1.632156,-1.066206,-9.486615
97.040314,1.769827,-1.022510,-9.807150
97.073766,1.870986,-0.906238,-9.851444
97.106950,1.843152,-0.886934,-9.848152
97.140382,1.594595,-0.936017,-9.931653
97.173744,1.556287,-0.936017,-9.912947
97.206943,1.199987,-0.653491,-9.813435
97.240540,1.323891,-0.749861,-9.459978
97.273691,1.668968,-0.823934,-9.689530
97.307067,1.200585,-0.822587,-9.817176
97.340277,1.221535,-0.795801,-9.786200
97.373625,1.168262,-0.704070,-9.477037
97.406988,1.496729,-0.653491,-9.526569
97.441506,1.318205,-0.917611,-10.039994
97.473549,1.851532,-0.927188,-9.515795
97.506910,1.794518,-0.848924,-9.628027
97.540233,1.544166,-0.906986,-9.725445
97.573637,1.706229,-1.156141,-9.854736
97.608006,1.559728,-0.821240,-9.990163
97.640311,1.419663,-1.084911,-9.779616
97.673560,1.536833,-0.911176,-9.802062
97.706981,1.570353,-0.720381,-9.865361
97.740266,1.634550,-0.906088,-9.947515
97.773558,1.499422,-0.925093,-9.979688
97.806978,1.573645,-1.002757,-9.954099
97.840413,1.907349,-0.866433,-10.023534
97.873647,2.057740,-0.525396,-9.824059
97.906951,2.206485,-0.542456,-9.757019
97.940302,1.962567,-0.838898,-9.404012
97.973631,1.980674,-0.970135,-9.437681
98.007079,2.092906,-0.660374,-9.762706
98.040513,1.746483,-0.523301,-9.587324
98.073809,1.614348,-0.611142,-9.477037
98.107000,2.176407,-0.331908,-9.449653
98.140375,2.006413,-0.354055,-9.430199
98.173722,1.900166,-0.424537,-9.578944
98.206957,1.818311,-0.724571,-9.443966
98.240317,1.543866,-0.674740,-9.442919
98.273770,1.747830,-0.588995,-9.625932
98.307005,1.785839,-0.678481,-9.430199
98.340347,2.215464,-1.387340,-9.290582
98.373593,1.267176,-0.777395,-9.601840
98.406987,1.511394,-0.905340,-9.712276
98.440386,1.890140,-0.794604,-10.109279
98.473767,1.979327,-0.608448,-9.847104
98.507006,1.862157,-0.882594,-9.677709
98.540242,1.541622,-0.726517,-9.746245
98.573606,1.287977,-0.925991,-9.670227
98.606985,1.816516,-0.758839,-9.803259
98.640288,1.595194,-0.722177,-9.984477
98.673641,1.615096,-1.021014,-10.059597
98.706941,1.640685,-0.891273,-9.700754
98.740309,1.696951,-0.758540,-9.855484
98.773677,1.602077,-0.751507,-9.772283
98.806986,1.671362,-0.881696,-9.640747
98.840481,1.261041,-0.910428,-9.537643
98.873569,1.322395,-1.002308,-9.492002
98.906990,1.555090,-0.790564,-9.717065
98.940407,1.435674,-0.820193,-9.547968
98.973719,1.764889,-0.824084,-9.456686
99.006945,1.743490,-0.844286,-9.490505
99.040275,1.203279,-0.921052,-9.442769
99.073698,1.499871,-0.958164,-9.638801
99.106957,1.486553,-1.064111,-9.528964
99.140259,1.397665,-1.034033,-9.683545
99.173638,1.093142,-0.929283,-9.458033
99.206992,1.250716,-1.089700,-9.675614
99.240282,1.375368,-1.238894,-9.852342
99.273627,1.596541,-0.947389,-9.899180
99.307009,1.196096,-1.053935,-9.648229
99.340263,1.446149,-1.045555,-9.672322
99.373829,1.742742,-0.975822,-9.686687
99.406991,1.816965,-0.890675,-9.837527
99.440236,1.536534,-1.088952,-9.524175
99.473645,1.496878,-1.103317,-9.482574
99.506990,1.844948,-0.871371,-9.768841
99.540578,1.693509,-0.828423,-9.841418
99.575350,1.530847,-1.005451,-9.468358
99.606982,1.864701,-0.944247,-9.466712
99.640255,1.819209,-0.940805,-9.689530
99.674337,1.777758,-0.895164,-9.487662
99.706971,2.093355,-0.686263,-9.663792
99.740514,2.032899,-0.948587,-9.476888
99.773589,1.573047,-1.056030,-9.493498
99.806937,1.658493,-0.840395,-9.533303
99.840273,1.682136,-0.847428,-9.818373
99.873653,1.399012,-1.139232,-9.688782
99.907116,1.476228,-0.921651,-9.761958
99.940271,1.905553,-0.734597,-9.824808
99.973649,1.660588,-0.802685,-9.887209
100.007524,1.464705,-0.837252,-9.745198
100.040273,1.578583,-1.054983,-9.666485
100.073702,1.700542,-0.944397,-9.828698
100.106986,1.748279,-0.791611,-9.863864
100.140397,1.526957,-0.961755,-9.538092
