time_tick,acc_X_value,acc_Y_value,acc_Z_value
0.024897,0.439950,-0.130938,-10.014256
0.044815,0.376352,-0.306618,-9.863864
0.078116,0.334302,-0.343131,-9.760461
0.110534,0.274146,-0.324725,-9.508762
0.144150,0.184210,-0.338343,-9.453693
0.178099,0.079460,-0.273547,-9.659752
0.210750,-0.063000,-0.191094,-9.877931
0.244022,-0.071679,-0.124802,-9.868503
0.278278,-0.065394,0.146201,-9.560688
0.311526,-0.017957,0.184809,-9.500831
0.344824,-0.211296,-0.036962,-9.531956
0.378141,-0.098914,-0.263821,-9.953800
0.411528,0.029480,-0.290008,-9.978042
0.444080,0.223567,-0.127645,-9.897085
0.478090,0.348219,-0.045491,-10.039994
0.510851,0.253944,-0.170892,-10.072167
0.544762,0.266364,-0.328317,-10.041341
0.578102,0.188700,-0.320236,-10.049272
0.611430,-0.024093,-0.163410,-9.898432
0.644029,-0.066441,-0.004639,-9.814333
0.678188,-0.035765,0.139318,-9.755224
0.711488,-0.046689,0.254094,-9.666785
0.744836,-0.015713,0.213690,-9.528814
0.777651,0.201569,0.107144,-9.686089
0.811445,0.249305,-0.067788,-9.861620
0.844825,0.249455,-0.215935,-9.871047
0.877762,0.354354,-0.339839,-9.987170
0.911445,0.401043,-0.311257,-10.020092
0.944804,0.373658,-0.314549,-9.867157
0.978189,0.357946,-0.196631,-9.817625
1.011513,0.183762,-0.162063,-9.720806
1.044863,0.176429,-0.172538,-9.626231
1.078879,0.245265,-0.096220,-9.566225
1.111479,0.134679,-0.245265,-9.756122
1.144839,0.060755,-0.283124,-9.835283
1.178180,0.020202,-0.258134,-9.887807
1.211516,-0.097268,0.120163,-9.903221
1.244847,0.097866,0.441596,-9.944672
1.278171,0.040254,0.461798,-9.978042
1.311519,-0.007482,0.237783,-9.933598
1.344844,-0.159220,0.152935,-9.828848
1.378185,-0.151888,0.218628,-9.755673
1.411507,0.000000,0.349566,-9.521631
1.445083,0.166852,-0.017957,-9.608274
1.478192,0.272500,-0.191693,-9.638502
1.511568,0.393860,-0.320086,-9.692224
1.544840,0.503549,-0.322929,-9.972356
1.578183,0.625208,-0.327419,-10.022037
1.611507,0.573282,-0.340737,-9.994503
1.644839,0.414062,-0.352259,-9.847104
1.678180,0.491427,-0.276391,-9.749986
1.711475,0.584206,0.083052,-9.617403
1.744821,0.477810,0.257685,-9.725145
1.778165,0.436508,0.158472,-10.003481
1.811636,0.424836,0.002095,-9.918035
1.844902,0.374706,-0.079011,-9.782908
1.878185,0.316345,0.114477,-9.618600
1.911509,0.458506,0.423639,-9.663044
1.944810,0.397751,0.467036,-9.927762
1.978172,0.540361,0.462546,-10.061094
2.011481,0.611291,0.194386,-10.018146
2.044815,0.708859,0.042050,-9.779167
2.078187,0.890376,-0.051328,-9.651222
2.111503,1.127560,-0.049382,-9.689530
2.144850,1.206272,-0.100859,-9.761958
2.178183,1.154196,-0.070482,-9.746694
2.211524,1.356364,0.025290,-9.912050
2.244850,1.314613,0.004340,-10.031614
2.278188,1.016375,-0.017508,-10.097158
2.311612,0.773504,0.231498,-10.186046
2.344854,0.503997,0.682671,-9.890501
2.378249,0.110885,1.070246,-9.273074
2.411516,-0.075270,0.959511,-9.063125
2.445014,-0.306020,0.804480,-9.079137
2.478133,-0.105049,0.791611,-9.685939
2.511477,0.322780,0.676985,-10.166891
2.544808,0.743127,0.574928,-10.466028
2.578139,0.542156,0.432318,-10.260568
2.611516,0.182415,0.302428,-9.811190
2.644810,0.192142,0.445487,-9.962330
2.678187,0.159819,0.664265,-10.063937
2.711652,0.265317,0.619073,-9.943624
2.744755,0.272201,0.360789,-9.846955
2.778090,0.026636,-0.262025,-9.795029
2.811425,0.620120,-0.165655,-10.267152
2.844759,0.993779,0.515221,-10.449417
2.878098,0.724721,0.948138,-9.988367
2.911417,0.543952,0.622515,-9.602887
2.944759,0.437257,0.121360,-9.414786
2.978112,0.644363,0.009577,-9.693720
3.011437,0.615781,0.132584,-9.988367
3.044958,0.512826,0.257236,-9.537493
3.078105,0.516119,0.422442,-9.292528
3.111813,0.615930,0.945294,-9.475691
3.144803,0.582111,1.002458,-9.828100
3.178139,0.540510,0.837701,-10.064835
3.212121,0.602612,0.326521,-10.286007
3.244809,0.616230,0.060007,-10.356339
3.278184,0.643764,0.469729,-10.053612
3.311518,0.683270,0.808970,-9.720507
3.344892,0.678331,0.915516,-9.457883
3.378187,0.801637,0.966993,-9.714820
3.411528,0.827974,0.875262,-9.905765
3.444930,0.749262,1.033883,-9.743701
3.478200,0.721728,0.917910,-9.687435
3.512042,0.577023,0.861943,-9.744300
3.544826,0.565950,0.877506,-9.893943
3.578182,0.472872,0.900102,-9.962928
3.611530,0.448630,0.927188,-9.876883
3.644996,0.507290,0.908782,-9.732179
3.678174,0.502800,0.652593,-9.764202
3.711521,0.323079,0.313502,-9.757468
3.744867,0.264269,0.312305,-9.845009
3.778181,0.386079,0.682073,-9.863266
3.811515,0.413314,0.935418,-9.753129
3.846279,0.275343,0.790564,-9.715568
3.878182,0.272799,0.574180,-9.573557
3.911536,0.332507,0.464342,-9.621144
3.944860,0.300483,0.452520,-9.560688
3.978153,0.457608,0.479905,-9.640597
4.011515,0.568494,0.422292,-9.937788
4.044851,0.640771,0.526294,-10.145493
4.077430,0.630745,0.637030,-10.093117
4.111458,0.510282,0.358993,-9.959935
4.144045,0.410620,0.232096,-9.836629
4.178092,0.363932,0.258882,-9.761509
4.211418,0.312305,0.513275,-9.724547
4.244128,0.285219,0.669203,-9.698359
4.277958,0.227308,0.598123,-9.719908
4.311427,0.145902,0.509983,-9.965322
4.344143,0.131686,0.473171,-9.966819
4.378089,0.175232,0.615781,-9.917736
4.411419,0.233443,0.635384,-10.015902
4.444260,0.217581,0.757193,-10.102545
4.478095,0.133332,0.720980,-10.093117
4.511449,0.124952,0.773355,-10.015752
4.544818,0.258882,0.905938,-9.896337
4.578156,0.308713,0.969537,-9.750435
4.611516,0.556372,0.961755,-9.765699
4.644970,0.756595,0.849523,-9.803558
4.678182,0.758390,0.643016,-9.848302
4.711097,0.707661,0.395955,-9.879278
4.744843,0.695241,0.576425,-10.098355
4.778118,0.614434,0.648403,-9.990013
4.811479,0.418252,0.639125,-9.777371
4.844058,0.365278,0.696438,-9.720058
4.878154,0.241374,0.676985,-9.614110
4.911422,0.268759,0.859699,-9.495892
4.943834,0.408974,0.674740,-9.639101
4.978097,0.467933,0.596626,-9.686238
5.011461,0.569691,0.607999,-9.780214
5.044763,0.590341,0.543653,-10.079350
5.078110,0.567895,0.541707,-10.058550
5.111459,0.558617,0.627154,-10.079949
5.144809,0.530784,0.707961,-9.896936
5.178970,0.521805,0.731604,-9.836629
5.211468,0.583009,0.658130,-9.760760
5.244840,0.627603,0.595130,-9.621892
5.278256,0.624909,0.332357,-9.632217
5.310780,0.489033,-0.036214,-9.689680
5.344842,0.491876,-0.095622,-9.808197
5.378200,0.460451,0.014815,-9.863116
5.411516,0.357198,0.072427,-9.716915
5.444897,0.244966,0.377848,-9.638652
5.478186,0.368122,0.388772,-9.772582
5.511852,0.364530,0.313203,-9.770487
5.544930,0.454765,0.122707,-9.696115
5.578243,0.558019,0.105798,-9.740708
5.611516,0.654389,-0.001646,-9.785901
5.644850,0.697037,-0.093976,-9.819869
5.678205,0.748364,-0.182564,-9.867306
5.711518,0.666809,-0.326521,-9.960534
5.744840,0.662769,-0.242571,-9.908458
5.778181,0.701526,-0.006135,-9.861021
5.811537,0.605156,0.044893,-9.859974
5.844819,0.523301,0.066890,-9.840670
5.878181,0.416756,0.165056,-9.942128
5.911516,0.438753,0.243020,-9.964425
5.944911,0.401043,0.156676,-9.909655
5.978217,0.420197,0.467784,-9.893793
6.011510,0.486340,0.454166,-9.972655
6.044848,0.415110,0.577023,-9.954099
6.078192,0.439651,0.694942,-9.890800
6.116176,0.439352,0.814955,-9.672322
6.144816,0.563256,0.843687,-9.604833
6.178140,0.726217,0.914169,-9.530011
6.211472,0.848924,0.868228,-9.557096
6.244986,0.982705,0.647804,-9.676960
6.278232,1.017422,0.497712,-9.720955
6.311565,1.031339,0.321732,-9.859375
6.344848,0.919406,0.231797,-9.904717
6.378277,0.791761,0.343281,-9.994952
6.411507,0.742229,0.560562,-10.020541
6.444854,0.597824,0.816452,-9.908159
6.478236,0.479007,0.765873,-9.855933
6.511515,0.459853,0.761683,-9.790539
6.544892,0.523451,0.927188,-9.661248
6.578204,0.545449,0.643465,-9.572659
6.611517,0.506242,0.622664,-9.544227
6.644528,0.488584,0.602014,-9.531208
6.677833,0.412416,0.704669,-9.627279
6.711511,0.478109,0.784129,-9.802661
6.744938,0.450725,0.726816,-9.916988
6.777434,0.363034,0.581662,-9.968016
6.810936,0.267711,0.766322,-10.070372
6.844861,0.154880,0.934520,-10.113768
6.878140,0.121061,1.158087,-10.121101
6.911499,0.072427,1.137436,-10.011263
6.944759,0.061054,0.966245,-9.734274
6.978090,0.140365,1.061268,-9.607676
7.011435,0.254692,0.995425,-9.457734
7.044884,0.250652,0.903694,-9.470004
7.078146,0.319937,0.987643,-9.479132
7.111468,0.306918,0.978515,-9.353732
7.144479,0.428278,0.959511,-9.664690
7.178155,0.330112,0.951131,-9.591065
7.211725,0.256787,0.883342,-9.622041
7.245870,0.326521,0.934520,-9.535249
7.278121,0.346124,0.895463,-9.474643
7.311523,0.449378,0.779490,-9.469555
7.344808,0.542156,0.742379,-9.575353
7.378184,0.533776,0.675189,-9.785601
7.411514,0.596327,0.786823,-9.902472
7.444923,0.628201,0.860896,-9.855933
7.478179,0.618923,0.902946,-9.794879
7.511508,0.655286,0.820642,-9.808946
7.544862,0.647954,0.799542,-9.961432
7.578188,0.675937,0.824084,-10.076956
7.611638,0.653640,0.797597,-10.047177
7.644800,0.666061,0.911326,-9.960085
7.678191,0.757044,0.831865,-10.025629
7.711508,0.716790,0.839647,-9.944672
7.744849,0.783530,0.774253,-9.819720
7.778188,0.809119,0.814806,-9.800865
7.811583,0.758091,0.760635,-9.881672
7.844857,0.666809,0.692248,-9.898133
7.878256,0.630595,0.766322,-9.804456
7.911678,0.572833,0.778143,-9.761359
7.944846,0.555624,0.817350,-9.736518
7.978181,0.797597,0.944995,-9.828848
8.011512,0.883193,0.873765,-9.776323
8.044839,0.902646,0.499658,-9.661847
8.078186,0.837103,0.336397,-9.712575
8.111631,0.901150,0.646757,-9.652718
8.144854,0.848476,0.525995,-9.444266
8.178198,0.883492,0.394010,-9.461175
8.211517,1.042263,0.589294,-9.570864
8.245304,1.157937,0.405832,-9.694918
8.278193,1.106011,0.371414,-9.738613
8.311512,0.984950,0.222220,-9.911301
8.344835,0.915366,0.327868,-9.984177
8.384189,0.757343,0.511180,-9.771086
8.411477,0.599619,0.587199,-9.630122
8.444805,0.628500,0.568793,-9.708385
8.478189,0.660374,0.613087,-9.602289
8.511512,0.667707,0.617876,-9.483322
8.545066,0.690004,0.528988,-9.399672
8.578184,0.733101,0.557719,-9.478534
8.611668,0.728462,0.640023,-9.561137
8.644856,0.735944,0.662469,-9.646284
8.678216,0.639574,0.704818,-9.767345
8.711781,0.561311,0.673693,-9.821516
8.744843,0.514173,0.706764,-9.815081
8.778190,0.446535,1.014579,-9.656609
8.811538,0.431121,0.900102,-9.705393
8.844264,0.388473,0.930480,-9.676661
8.878186,0.409722,1.021612,-9.649875
8.911047,0.519560,1.106310,-9.661098
8.944932,0.671747,1.232310,-9.612015
8.978152,0.739685,1.217196,-9.519237
9.012799,0.816452,1.153149,-9.540636
9.044763,0.891722,0.901599,-9.419724
9.078151,0.853863,0.798495,-9.390394
9.110819,1.028795,0.903394,-9.430050
9.144858,1.151353,0.925991,-9.534201
9.178153,1.101222,0.865684,-9.487662
9.211716,1.094489,0.705866,-9.548716
9.244862,1.139232,0.605605,-9.588222
9.278225,1.108106,0.461050,-9.604982
9.310779,1.067553,0.251550,-9.729186
9.344841,1.044657,0.394608,-9.756122
9.378145,0.935867,0.425884,-9.932102
9.410658,0.780687,0.574030,-10.090125
9.444075,0.682222,0.671149,-10.222259
9.478087,0.392962,0.791910,-10.118706
9.511426,0.137372,0.851917,-9.834983
9.544837,0.054021,1.073987,-9.746694
9.578104,0.132883,1.202830,-9.818672
9.611444,0.268609,1.323742,-9.821665
9.644808,0.268609,1.157787,-9.618151
9.678150,0.361388,1.226923,-9.377824
9.711585,0.391167,1.124267,-9.239255
9.744975,0.464043,1.020864,-9.059085
9.778220,0.564902,1.000213,-9.055643
9.811514,0.593484,0.811364,-8.941016
9.844837,0.665163,0.515819,-9.074049
9.878281,0.736243,0.406430,-9.195559
9.911176,0.764975,0.143358,-9.399223
9.944856,0.712450,-0.116123,-9.565776
9.978184,0.670251,0.085446,-9.876434
10.011640,0.658728,0.547843,-10.118557
10.044908,0.549040,0.659327,-10.029070
10.078197,0.326072,0.794903,-9.903670
10.111554,0.287314,0.983005,-9.793233
10.144852,0.132584,0.848176,-9.838724
10.178311,0.140066,0.834409,-10.057502
10.211543,0.289559,0.977019,-10.044932
10.245419,0.372910,1.023558,-9.885712
10.278187,0.375604,0.930480,-9.921178
10.311518,0.332656,0.885288,-9.869401
10.345611,0.330561,0.870174,-9.686388
10.378181,0.280281,0.835606,-9.581039
10.411005,0.293151,0.844734,-9.561286
10.444997,0.388024,0.991085,-9.521631
10.478183,0.474218,0.941553,-9.401468
10.515511,0.338043,0.723823,-9.359717
10.544811,0.328017,0.756744,-9.270530
10.578144,0.377699,0.929283,-9.297915
10.611453,0.364381,0.890076,-9.274571
10.644857,0.300483,0.912672,-9.221597
10.678194,0.335051,0.922549,-9.193913
10.711267,0.356898,0.865984,-9.131961
10.744852,0.431870,0.845932,-9.170569
10.777449,0.525247,0.915815,-9.239404
10.811474,0.659476,0.873167,-9.207830
10.844757,0.680277,0.670550,-9.240901
10.878094,0.651994,0.551734,-9.335924
10.910462,0.698683,0.544700,-9.473895
10.944766,0.780538,0.508786,-9.593909
10.978115,0.812262,0.324426,-9.793383
11.011464,0.864487,0.463893,-9.930755
11.044784,0.744773,0.378597,-10.163749
11.078139,0.325773,0.557420,-10.053013
11.111470,0.254692,0.676087,-10.183651
11.144886,0.297789,0.776497,-10.146390
11.178146,0.319787,0.739685,-9.943325
11.211468,0.314849,0.513425,-9.674417
11.244847,0.373509,0.335948,-9.788444
11.278174,0.360191,0.294497,-9.820019
11.311516,0.204113,0.434413,-9.646733
11.344967,0.058361,0.738638,-9.429750
11.378189,-0.049233,0.884689,-9.360166
11.412181,-0.026487,1.079524,-9.398325
11.444950,0.033819,1.085959,-9.401168
11.478250,0.283274,1.038821,-9.357323
11.511514,0.367074,0.908033,-9.252573
11.544847,0.458057,0.700479,-9.205136
11.578292,0.614883,1.003356,-9.174459
11.611649,0.694493,0.789516,-9.327395
11.646756,0.608598,0.669951,-9.565776
11.678143,0.600218,0.737740,-9.650773
11.711789,0.503249,0.739087,-9.809394
11.744875,0.477810,0.793706,-9.935394
11.778178,0.407478,0.814507,-9.978790
11.811514,0.381141,0.936914,-10.060795
11.844859,0.314849,1.026102,-10.111972
11.877430,0.172838,1.091496,-10.117958
11.911513,0.179422,1.203728,-9.941080
11.943933,0.210548,1.003655,-9.758217
11.978187,0.255441,0.735645,-9.624735
12.011751,0.294198,0.896810,-9.718112
12.044918,0.336996,1.015028,-9.805055
12.078200,0.121360,0.780687,-9.620545
12.111514,0.045043,0.776348,-9.694918
12.144850,0.097567,1.018919,-9.732777
12.178278,0.096819,0.971931,-9.728587
12.211584,-0.089486,0.863589,-9.493648
12.244953,-0.114178,0.973577,-9.363159
12.277944,-0.057313,0.985548,-9.339366
12.311097,-0.038309,1.104515,-9.447259
12.344938,0.018107,1.257599,-9.581339
12.377299,0.201719,1.095536,-9.848302
12.411647,0.224614,0.808222,-10.031165
12.444892,0.306469,0.800590,-10.136813
12.478181,0.439202,0.946492,-10.015902
12.511607,0.435162,0.858502,-9.877781
12.544965,0.277737,0.671448,-9.902173
12.578161,0.272949,0.665462,-10.108082
12.611530,0.199175,0.567895,-10.130827
12.644873,0.077814,0.452071,-10.082194
12.678180,0.096819,0.729060,-9.988667
12.711514,0.046389,0.796549,-9.970710
12.746569,0.000898,0.997221,-9.911301
12.778143,-0.013019,1.024456,-9.963527
12.811479,-0.125700,1.080272,-9.928959
12.844340,-0.072278,1.141177,-9.662445
12.878143,0.013019,1.091496,-9.678906
12.911571,0.231198,1.277053,-9.809843
12.944987,0.492475,1.408888,-9.861769
12.978208,0.393561,1.200286,-9.486914
13.011516,0.386827,1.088503,-9.230127
13.044863,0.459105,1.163324,-9.219801
13.078234,0.432169,1.159733,-9.123132
13.111582,0.413463,1.153597,-9.126574
13.144869,0.342982,1.013532,-9.441422
13.178186,0.256039,0.758390,-9.684742
13.211586,0.278037,0.640621,-9.810891
13.244945,0.316046,0.920154,-9.823760
13.278866,0.579118,1.149108,-10.154770
13.310740,0.526444,1.456176,-10.158661
13.344882,0.379345,1.378810,-9.757917
13.378288,0.256937,1.145217,-9.603486
13.410655,0.088888,0.825879,-9.367349
13.444850,0.085147,1.020565,-9.463270
13.478306,0.202317,1.448394,-9.828399
13.511545,0.282825,1.476228,-9.986871
13.544833,0.319637,1.287079,-9.936142
13.578290,0.269657,1.081919,-9.775126
13.611587,0.269657,1.056330,-9.625184
13.644897,0.327568,1.083714,-9.518638
13.678252,0.079460,0.954722,-9.618300
13.711666,0.011523,0.912523,-9.654963
13.744909,-0.102505,0.582410,-9.758067
13.778288,-0.116422,0.391316,-9.893643
13.815469,-0.025739,0.747317,-10.031465
13.844760,0.020052,0.577921,-9.768841
13.878090,-0.002694,0.606802,-9.763005
13.911420,-0.072278,1.003506,-9.835133
13.944753,-0.198576,1.011137,-9.662445
13.978090,-0.356898,1.049596,-9.370791
14.011440,-0.354055,0.970135,-9.519835
14.044764,-0.329065,0.947240,-9.615607
14.078115,-0.324875,0.713946,-9.555899
14.111530,-0.324875,0.465838,-9.588372
14.144705,-0.059109,0.588546,-9.895289
14.178025,0.210398,0.887532,-10.044932
14.211444,0.116572,0.932874,-9.829596
14.243911,-0.007931,0.863589,-9.658554
14.277824,-0.033221,0.920154,-9.637754
14.311509,-0.015114,1.032237,-9.694618
14.345099,-0.086344,1.150904,-9.814333
14.378300,0.060905,1.422805,-9.898731
14.411522,0.166852,1.235602,-10.202806
14.444849,0.197828,1.179336,-10.346313
14.478280,0.328317,1.451537,-10.295734
14.511522,0.402988,1.606866,-10.105987
14.544935,0.343281,1.473534,-9.719160
14.577178,0.290607,1.349181,-9.225637
14.611421,0.254094,1.308328,-9.053548
14.644770,0.175082,1.227521,-9.170868
14.678120,0.163709,1.231861,-9.324402
14.711447,0.284920,1.382252,-9.639250
14.744813,0.500256,1.416071,-9.768692
14.778138,0.508786,1.404399,-9.676063
14.811498,0.594531,1.148659,-9.379321
14.844938,0.690004,0.947090,-9.463719
14.886582,0.754350,0.965796,-9.525073
14.911448,0.681923,0.879601,-9.444266
14.944804,0.651994,0.881397,-9.461325
14.978143,0.611890,0.757792,-9.696863
15.011571,0.582859,0.869276,-10.021439
15.044858,0.527192,1.126811,-10.125141
15.078182,0.160268,0.855209,-9.978940
15.111513,0.034418,0.830069,-9.932401
15.144854,-0.053572,1.114241,-10.006624
15.178210,-0.122707,1.137137,-9.918783
15.211520,-0.169097,1.150006,-9.856532
15.244858,-0.176130,1.258348,-9.900228
15.278183,0.002843,1.460814,-9.960085
15.311820,0.166253,1.359506,-9.735022
15.344847,0.129591,1.280195,-9.629973
15.378701,0.221621,1.059173,-9.461475
15.411507,0.389072,0.994228,-9.383960
15.444884,0.362585,0.859399,-9.303003
15.478196,0.354953,0.746269,-9.314825
15.511618,0.416756,0.802984,-9.375280
15.544884,0.426333,0.780538,-9.698808
15.578262,0.297341,1.087904,-9.811041
15.611644,0.222968,1.032237,-9.687136
15.644837,0.059408,0.974475,-9.928959
15.678276,-0.015713,1.068451,-10.043885
15.711622,-0.028133,1.267775,-10.073065
15.744862,0.016161,1.454978,-10.157314
15.778240,-0.162063,1.554042,-10.076208
15.811074,-0.255590,1.483111,-9.943923
15.845475,-0.324276,1.423104,-9.924769
15.877339,-0.254992,1.656697,-10.033410
15.911550,-0.061354,1.794818,-10.026227
15.944839,0.022446,1.495681,-9.585379
15.978182,0.036663,1.353221,-9.291779
16.011594,0.018556,1.301145,-9.150068
16.047492,0.004789,1.185621,-8.984263
16.078165,0.016161,1.200136,-9.129716
16.111428,0.192142,1.426696,-9.426907
16.144761,0.158771,1.274210,-9.687735
16.178132,0.072876,1.202531,-9.770338
16.210495,0.005238,1.128158,-9.824359
16.244774,-0.139168,1.432981,-9.912947
16.278217,-0.142909,1.827440,-9.772582
16.311569,-0.174184,1.884154,-9.559341
16.344861,-0.228205,1.805891,-9.397128
16.378210,-0.170743,1.740048,-9.449802
16.411665,-0.002544,1.446299,-9.792934
16.444806,0.187054,1.477574,-9.921327
16.478213,0.212643,1.420261,-9.865810
16.511535,0.073624,1.024306,-9.748340
16.544913,-0.039206,0.943798,-9.663493
16.578252,-0.152187,1.097930,-9.833038
16.611541,-0.188400,1.439116,-10.088329
16.645205,-0.196930,1.595194,-10.119455
16.678334,-0.343879,1.662533,-9.850546
16.711631,-0.334751,1.540275,-9.882570
16.744803,-0.346573,1.451387,-9.855185
16.778154,-0.208602,1.483710,-9.851145
16.811547,-0.105199,1.456026,-9.661996
16.844885,-0.031724,1.283787,-9.439627
16.878465,-0.014366,1.259096,-9.484370
16.911496,0.105498,1.082218,-9.652569
16.944981,0.065693,1.033135,-9.653167
16.978184,-0.130189,0.879452,-9.741905
17.011661,-0.342682,0.888430,-9.596303
17.044851,-0.360340,1.031339,-9.533004
17.083683,-0.413164,1.184873,-9.764202
17.111513,-0.477660,1.268673,-9.922076
17.144751,-0.521057,1.544315,-10.033859
17.178088,-0.559365,1.647419,-9.987170
17.211420,-0.530035,1.772072,-9.902173
17.244764,-0.279234,1.507054,-10.045381
17.278098,-0.179422,1.414275,-10.009317
17.311448,-0.106845,1.440014,-9.810741
17.344884,0.064197,1.408290,-9.678906
17.378227,-0.040553,1.345739,-9.716616
17.411465,-0.064496,1.371478,-9.981633
17.444975,-0.002843,1.607165,-10.204153
17.478739,-0.227158,1.941617,-10.111374
17.511509,-0.411817,1.722390,-9.806851
17.544856,-0.662020,1.190410,-9.591514
17.580975,-0.765124,0.777395,-9.336373
17.611564,-0.607101,0.733400,-9.287589
17.644816,-0.559515,0.775450,-9.272924
17.677331,-0.444888,0.689405,-9.172813
17.711505,-0.221322,1.115887,-9.395332
17.744979,0.099961,1.308179,-9.847254
17.778260,0.236286,1.183376,-9.845159
17.811459,0.139916,1.163923,-9.693122
17.844931,-0.251550,1.190110,-9.609471
17.878347,-0.321433,1.274509,-9.577747
17.911539,-0.275193,1.878917,-9.345651
17.944891,-0.298089,1.962418,-9.300459
17.978901,-0.303775,1.803198,-9.403563
18.011607,0.477361,2.107871,-10.159260
18.044880,0.911924,2.091709,-10.139956
18.078279,-0.036513,0.937663,-9.639699
18.111553,-0.463145,0.302578,-9.481826
18.144844,-0.529586,1.134294,-9.628476
18.178211,-0.254393,1.690217,-9.623239
18.216506,-0.295694,1.472487,-9.418976
18.244869,-0.443841,1.249519,-9.454591
18.278134,-0.477810,1.363098,-9.576999
18.311540,-0.371563,1.337808,-9.704195
18.344966,-0.318889,1.346637,-9.721105
18.378161,-0.319338,1.236200,-9.985674
18.411538,-0.146500,1.035380,-10.043885
18.444976,-0.022895,1.044208,-9.974750
18.478337,0.197978,1.449442,-10.018446
18.511542,0.122408,1.391979,-10.047027
18.544919,-0.073624,1.112745,-9.708385
18.578309,-0.224614,1.197144,-9.346549
18.611546,-0.299884,1.214053,-9.244941
18.645002,-0.335051,1.303839,-9.156203
18.678366,-0.318739,1.322395,-9.398176
18.711613,-0.156377,1.332271,-10.010066
18.744923,0.218030,1.425648,-10.703062
18.778323,0.277588,1.455427,-10.626295
18.811762,0.126748,1.225276,-10.217620
18.845729,-0.103553,1.113044,-9.253770
18.878189,-0.092479,1.545213,-9.150217
18.911588,0.276241,1.819209,-9.569068
18.944830,0.528689,1.757556,-9.842466
18.978282,0.632241,1.579930,-9.968016
19.011493,0.746718,1.258497,-10.101797
19.045018,0.861644,1.230514,-9.894990
19.078771,0.846829,1.231262,-9.606179
19.111516,0.648852,1.417568,-9.575203
19.145032,0.506841,1.670464,-9.585080
19.178176,0.376502,1.739150,-9.436784
19.211616,0.192441,1.663581,-9.510258
19.244923,0.080358,1.833126,-9.651671
19.278080,0.142011,1.963166,-9.769739
19.311927,0.095921,2.005814,-9.742803
19.351296,-0.119864,1.562721,-9.535249
19.378145,-0.063449,1.504211,-9.591814
19.411480,-0.107743,1.338556,-9.603935
19.444838,-0.232246,1.178588,-9.839473
19.478134,-0.216533,1.210611,-9.755822
19.511626,-0.302129,1.476976,-9.681300
19.545311,-0.313203,1.529351,-9.801613
19.578208,-0.214438,1.533691,-10.005127
19.611496,0.025739,1.676450,-9.975348
19.645183,0.253645,1.748428,-10.003332
19.678184,0.584655,1.542968,-10.168388
19.711488,0.537667,1.008743,-9.957092
19.744759,0.502202,0.792060,-9.874489
19.778092,0.685365,0.937812,-9.947365
19.811440,0.768716,0.983005,-10.050619
19.844775,0.684616,1.190859,-9.850247
19.878112,0.522703,1.191457,-9.587474
19.911704,0.272350,1.070546,-9.657507
19.945248,0.136923,1.270169,-9.741756
19.978116,-0.130938,1.346936,-9.641495
20.011545,-0.194237,1.454380,-9.564579
20.044818,-0.134529,1.510496,-9.513101
20.078215,-0.134080,1.576488,-9.408052
20.111938,-0.087691,1.487750,-9.360615
20.144889,0.032024,1.390333,-9.608723
20.178218,0.096969,1.279447,-9.701352
20.211582,0.162812,1.331373,-9.754775
20.244795,0.261277,1.489396,-9.704046
20.278111,0.353157,1.470092,-9.665438
20.311462,0.349865,1.383299,-9.670675
20.344785,0.330112,1.304438,-9.615457
20.377964,0.321882,1.411133,-9.644488
20.411442,0.368122,1.347535,-9.726492
20.444630,0.463893,1.298153,-9.741756
20.478151,0.630146,1.256103,-9.957990
20.511539,0.663966,1.339604,-9.883767
20.544860,0.711702,1.300846,-9.652569
20.578213,0.776797,1.358908,-9.559940
20.611097,0.791761,1.241588,-9.567422
20.644839,0.811963,1.121724,-9.463270
20.678267,0.875262,1.135042,-9.691177
20.711560,0.874813,1.259994,-9.805204
20.744823,0.918359,1.440613,-9.974151
20.778161,0.902646,1.469793,-9.945719
20.811541,0.740882,1.557484,-9.858627
20.844874,0.746419,1.508401,-10.005876
20.877253,0.724571,1.413378,-10.002883
20.911540,0.703023,1.342148,-9.981185
20.944850,0.669802,1.239493,-9.976845
20.978340,0.561460,1.226474,-9.827651
21.012031,0.606054,1.315362,-9.622341
21.044893,0.506392,1.126811,-9.494097
21.078294,0.459553,1.091047,-9.523127
21.111019,0.487088,1.049596,-9.537942
21.144848,0.485891,0.865535,-9.800566
21.178181,0.507888,0.840395,-9.996897
21.211909,0.225662,0.685215,-9.912349
21.244893,0.257386,0.624460,-9.804905
21.279115,0.333853,0.738338,-9.715568
21.311538,0.151588,0.656933,-9.469406
21.344901,-0.004938,0.310659,-9.331884
21.378193,-0.021698,0.161614,-9.275019
21.411558,-0.012121,0.078563,-9.316920
21.444911,0.248707,0.106097,-9.509510
21.478178,0.035166,0.003891,-9.693272
21.511537,-0.093676,0.283424,-9.599296
21.544831,-0.194536,0.547244,-9.461924
21.584846,-0.226260,0.586151,-9.745347
21.610558,-0.154581,0.590790,-10.047776
21.644857,0.016461,0.854012,-10.343171
21.678171,0.000599,0.901150,-10.224504
21.711581,0.016760,0.835307,-9.990313
21.744819,0.050280,1.135640,-9.663044
21.778218,0.023943,1.234854,-9.573258
21.811538,0.007781,1.052588,-9.558593
21.844883,0.068836,0.842041,-9.728587
21.878188,0.133930,0.944097,-9.972954
21.911121,0.183911,1.168562,-9.971158
21.945248,0.143957,1.150605,-9.914593
21.978238,0.118966,1.036876,-9.848002
22.011729,0.086194,0.914767,-9.695367
22.044908,0.142011,0.919107,-9.530460
22.078168,0.208153,0.818248,-9.513251
22.111170,0.199025,0.665313,-9.512353
22.144898,0.253495,0.907584,-9.474494
22.178405,0.202317,0.821540,-9.483322
22.211554,0.160567,0.954572,-9.593011
22.245064,0.217431,1.073090,-9.752081
22.278168,0.213690,1.097631,-9.882420
22.311573,0.195434,1.085061,-9.935543
22.344876,0.212194,0.959361,-9.938387
22.377838,0.264718,0.946641,-9.924320
22.411572,0.230001,0.952627,-9.889902
22.444925,0.133631,1.018320,-9.843812
22.478219,0.083800,1.106610,-9.803259
22.511606,-0.014815,1.189661,-9.820917
22.544829,-0.023644,1.326435,-9.813734
22.578184,-0.003292,1.409936,-9.762706
22.611548,0.016610,1.427444,-9.803409
22.647442,0.084997,1.196395,-9.785901
22.678187,0.121809,1.175745,-9.802511
22.711546,0.336697,1.383299,-9.857579
22.744855,0.416606,1.203129,-9.596153
22.778222,0.353756,1.232010,-9.557845
22.811564,0.312305,1.196844,-9.544826
22.844878,0.283873,1.090299,-9.404161
22.878217,0.242422,0.995724,-9.507265
22.911509,0.187503,0.944995,-9.540336
22.944879,0.172239,0.887233,-9.599296
22.978151,0.052076,0.963102,-9.874938
23.011603,-0.017658,1.123070,-9.955596
23.044913,-0.068686,1.144020,-10.084588
23.078277,-0.108192,1.166616,-9.941978
23.111559,-0.032921,1.106161,-9.702250
23.144847,-0.001945,0.982107,-9.582236
23.178176,0.022297,0.972380,-9.510109
23.211564,0.133930,1.230514,-9.623688
23.244926,0.166403,1.194001,-9.678457
23.278165,0.274744,1.163923,-9.707488
23.311418,0.350464,1.031638,-9.711977
23.344117,0.350763,1.070695,-9.563082
23.378100,0.372761,1.114690,-9.479132
23.411436,0.214438,1.191756,-9.521781
23.444780,0.146800,1.169609,-9.472548
23.478132,0.162662,1.166467,-9.417480
23.511456,0.150840,1.154495,-9.593011
23.544796,0.095771,1.146115,-9.744599
23.578153,-0.099812,1.181281,-9.860123
23.611507,-0.241823,1.309376,-9.907261
23.644853,-0.287314,1.283338,-9.839473
23.677917,-0.340288,1.493736,-10.003631
23.711458,-0.263970,1.457672,-9.862518
23.744845,-0.243170,1.415024,-9.663942
23.778292,-0.120463,1.378960,-9.757169
23.811597,-0.091133,1.283488,-9.738913
23.845030,-0.125102,1.467249,-9.635809
23.878202,-0.089187,1.444653,-9.627728
23.911795,-0.007033,1.271965,-9.692523
23.944826,-0.084399,1.223630,-9.657058
23.978160,-0.106695,1.240839,-9.696564
24.011947,-0.172987,1.384796,-9.683844
24.044832,-0.162512,1.443306,-9.690578
24.078213,-0.293001,1.413078,-9.699407
24.111582,-0.305272,1.405297,-9.780214
24.144921,-0.331609,1.402005,-9.777969
24.178183,-0.292103,1.458719,-9.830943
24.211524,-0.190944,1.446299,-9.816278
24.244916,-0.130788,1.423404,-9.812537
24.278311,-0.111035,1.401855,-9.828698
24.311608,0.001197,1.398563,-9.761060
24.344899,-0.026487,1.341848,-9.604982
24.378235,0.038159,1.303989,-9.669179
24.411598,0.177028,1.247274,-9.783057
24.444878,0.224315,1.378361,-9.585379
24.478173,0.201868,1.176493,-9.591065
24.511535,0.114178,1.244431,-9.678008
24.544856,0.064945,1.284834,-9.678607
24.578281,-0.046689,1.203878,-9.716017
24.611545,-0.105199,1.214502,-9.777072
24.645123,-0.079610,1.311620,-9.714820
24.678180,-0.232395,1.298751,-9.484969
24.711515,-0.242871,1.374620,-9.612614
24.744736,-0.191693,1.481465,-9.676212
24.778336,-0.247659,1.443755,-9.673519
24.811641,-0.123904,1.466052,-9.683395
24.844810,-0.132284,1.541322,-9.626680
24.878129,-0.113729,1.564517,-9.620395
24.911477,-0.038159,1.490144,-9.505021
24.944851,0.048335,1.385095,-9.514747
24.978227,0.206657,1.329278,-9.603635
25.011516,0.250802,1.192954,-9.459529
25.044919,0.234790,1.062465,-9.498586
25.078686,-0.013468,1.182628,-9.639849
25.111543,-0.079460,1.217944,-9.770338
25.144851,-0.316644,1.268673,-9.770637
25.178215,-0.329364,1.329428,-9.686388
25.211514,-0.234042,1.666573,-9.836779
25.245196,-0.244068,1.637543,-9.931353
25.278180,-0.295694,1.447646,-9.957391
25.311515,-0.315148,1.385245,-10.055707
25.344843,-0.189897,1.411133,-10.123944
25.378271,-0.203514,1.426546,-9.923273
25.411517,-0.210697,1.437321,-9.725445
25.444850,-0.182714,1.379858,-9.535548
25.478210,-0.102206,1.420411,-9.566524
25.511564,-0.071679,1.251464,-9.650773
25.544917,-0.119415,1.260293,-9.638203
25.578277,-0.026038,1.318654,-9.798321
25.611514,0.038608,1.260742,-9.946767
25.644849,-0.039356,1.213155,-9.847853
25.679575,-0.092928,1.178887,-9.647032
25.711566,-0.101907,1.080272,-9.540336
25.744856,-0.083351,1.099876,-9.568320
25.778181,0.036214,1.254457,-9.679055
25.811546,0.154731,1.255055,-9.721554
25.844792,0.056715,1.021014,-9.731730
25.878185,0.073774,1.079375,-9.799668
25.911520,0.070332,1.259245,-9.610070
25.947756,0.071529,1.259994,-9.588372
25.978144,0.066890,1.291419,-9.613512
26.011502,0.047138,1.372226,-9.622640
26.044866,0.046539,1.267775,-9.638502
26.078138,-0.044294,1.189063,-9.756870
26.111583,-0.006884,1.192654,-9.817924
26.144834,-0.067339,1.238894,-9.581788
26.178183,-0.073026,1.101222,-9.560838
26.211537,-0.075570,1.170208,-9.625783
26.245097,-0.051328,1.210462,-9.660051
26.278179,0.017209,1.293963,-9.805653
26.311658,0.055817,1.447496,-9.874938
26.344903,-0.014515,1.485356,-9.708535
26.378185,-0.079311,1.390632,-9.755373
26.411515,-0.018256,1.381354,-9.796226
26.444819,0.055368,1.485506,-9.928061
26.478225,0.141113,1.563021,-10.019493
26.511507,0.270106,1.488798,-9.765250
26.544863,0.262623,1.419214,-9.580441
26.578209,0.237783,1.213904,-9.432145
26.611482,0.040853,0.893368,-9.507415
26.644832,-0.073175,1.003805,-9.478534
26.678181,-0.151439,1.221386,-9.350140
26.711513,-0.329214,1.141925,-9.578795
26.744940,-0.314400,1.498375,-9.809544
26.778161,-0.324276,1.592051,-9.763454
26.811516,-0.329214,1.558082,-9.726193
26.844861,-0.220873,1.410983,-9.565327
26.878162,-0.114028,1.529800,-9.572061
26.911616,-0.069135,1.410983,-9.547220
26.944815,-0.117170,1.136688,-9.500831
26.977431,-0.123455,1.108256,-9.474793
27.011530,-0.031275,1.143422,-9.589569
27.051327,-0.014964,1.176642,-9.947964
27.077253,0.015713,1.225875,-9.974750
27.111458,0.020800,1.338556,-9.991510
27.144788,-0.041152,1.350677,-9.889753
27.178124,-0.034568,1.396019,-9.700305
27.211506,0.080059,1.605070,-9.595106
27.244812,0.048035,1.419214,-9.596752
27.278256,0.172987,1.501966,-9.687735
27.311517,0.199624,1.582474,-9.579842
27.344892,0.147249,1.462760,-9.512503
27.378172,0.076617,1.411283,-9.579992
27.411537,0.085895,1.557633,-9.789043
27.444851,0.072128,1.575591,-9.828549
27.478179,0.032024,1.495681,-9.752680
27.511513,-0.010475,1.702488,-9.601690
27.544848,-0.024392,1.519624,-9.471201
27.578238,-0.015713,1.507054,-9.536446
27.611493,0.073175,1.564816,-9.698659
27.645018,0.099812,1.551797,-9.725594
27.678242,-0.094125,1.235751,-9.739511
27.711522,-0.096520,1.309825,-9.866558
27.744846,0.071080,1.837915,-10.104041
27.778027,0.122857,2.027662,-9.897833
27.811514,0.159070,1.901663,-9.804307
27.845404,0.035166,1.675103,-9.354929
27.878160,0.162363,1.654901,-9.416881
27.910657,0.318291,1.729274,-9.608125
27.944340,0.383385,1.837765,-9.409100
27.978263,0.346573,1.787335,-9.258409
28.011519,0.260229,1.465154,-9.628027
28.044853,0.243319,1.564068,-9.827801
28.078180,0.181367,1.970798,-9.872693
28.114209,0.038758,2.035743,-9.766148
28.144829,-0.098764,1.780003,-9.656908
28.178180,-0.093078,1.875774,-9.772433
28.211481,-0.066591,1.964812,-9.805354
28.244945,-0.010026,2.177604,-9.733675
28.278265,-0.103703,2.024070,-9.547370
28.311516,-0.276091,1.566313,-9.601091
28.344851,-0.264419,1.674654,-10.002583
28.378212,-0.133332,1.992945,-10.136813
28.411629,-0.159519,2.250181,-9.802212
28.444906,-0.281927,2.031403,-9.538092
28.478208,-0.277288,1.751720,-9.461475
28.511517,-0.240177,1.684980,-9.523277
28.544852,-0.052525,2.021377,-9.409100
28.578165,-0.172688,1.696801,-9.187179
28.611544,-0.353157,1.378660,-9.175058
28.645114,-0.402839,1.340651,-9.343107
28.678189,-0.285668,2.013296,-9.570564
28.711550,-0.087391,2.076894,-9.689381
28.744819,-0.204712,1.955833,-9.717364
28.778223,-0.200522,1.770875,-9.536595
28.811473,-0.015862,1.576040,-9.569517
28.844870,0.352559,1.816366,-9.887059
28.877539,0.658279,1.957330,-9.827501
28.911548,0.466886,1.305635,-9.705093
28.944857,0.420497,1.181880,-9.735770
28.978142,0.406430,1.138932,-10.017249
29.011507,0.469879,1.539527,-10.295884
29.044931,0.372162,1.672559,-10.312494
29.078157,0.007781,1.778806,-10.193827
29.111534,-0.105798,1.867694,-10.202357
29.144845,-0.238980,1.895378,-10.183651
29.178141,-0.268459,1.825794,-9.960683
29.211561,-0.309312,1.641433,-9.571462
29.252115,-0.261875,1.376266,-9.323653
29.278133,-0.254243,1.419214,-9.393836
29.311513,-0.096520,1.732416,-9.787397
29.344821,0.009278,1.933836,-9.748939
29.378178,-0.090085,1.675402,-9.473596
29.411520,-0.127496,1.636495,-9.308240
29.444865,-0.055966,1.684082,-9.219801
29.478147,0.178374,1.753366,-9.450850
29.511502,0.004789,1.518577,-9.416133
29.544937,-0.156377,1.376715,-9.449054
29.578179,-0.229852,1.558681,-9.694169
29.611530,-0.235388,1.877570,-9.758965
29.644904,-0.197379,2.192568,-9.683994
29.678134,-0.226859,2.116251,-9.751333
29.711541,-0.274445,2.100538,-9.535099
29.744855,-0.001796,2.143037,-9.523726
29.778452,0.240925,2.176407,-9.553505
29.811539,0.570289,1.911838,-9.623388
29.844669,0.566698,1.538778,-9.585978
29.878158,0.278785,0.965047,-9.468358
29.911469,0.123007,1.194450,-9.773779
29.943910,0.285818,1.850485,-9.977892
29.978090,0.351062,2.085574,-9.943774
30.011445,-0.066741,1.732716,-9.755673
30.044771,-0.331309,1.596690,-9.660200
30.078400,-0.115973,2.100837,-9.716765
30.111486,-0.042050,2.113557,-9.595854
30.144779,0.057463,1.991897,-9.324551
30.178138,0.109389,1.750224,-9.365105
30.211523,0.172838,1.449442,-9.381715
30.245042,0.144705,1.285882,-9.389347
30.283522,0.362585,1.785240,-9.727839
30.311483,0.328466,1.803497,-9.647032
30.344093,0.007632,1.334366,-9.408501
30.378213,-0.148595,1.465603,-9.437232
30.411516,-0.104600,1.851981,-9.497539
30.444145,-0.271452,1.787186,-9.525222
30.478227,-0.329663,1.735559,-9.594956
30.511643,-0.306618,1.786886,-9.852043
30.544832,-0.278037,1.750822,-10.053911
30.578183,-0.129142,1.876672,-10.482788
30.611463,0.044893,2.195412,-10.373848
30.644891,0.008230,1.969900,-10.121699
30.677980,-0.063299,1.625122,-10.020541
30.711956,0.067489,1.959275,-10.102695
30.744792,0.262025,2.173115,-10.019792
30.778138,0.185408,2.148573,-9.879278
30.811545,0.094275,2.017785,-9.789043
30.845528,0.043696,1.797361,-9.729485
30.878207,0.086344,2.004168,-9.812836
30.910738,0.144854,2.170421,-9.859076
30.944793,-0.016760,1.927102,-9.506966
30.978210,-0.148446,1.682585,-9.343107
31.011500,-0.233443,1.717751,-9.386354
31.044874,-0.135726,1.948950,-9.501579
31.078179,-0.165954,2.007759,-9.403263
31.111480,-0.347471,1.870836,-9.366900
31.145269,-0.354803,1.895826,-9.449653
31.178140,-0.153833,2.089315,-9.771385
31.211513,-0.059109,2.210526,-9.804606
31.244889,0.058211,1.952691,-9.692823
31.277962,0.262174,2.074051,-9.654364
31.311520,0.366925,2.020030,-9.590766
31.344851,0.476912,1.675253,-9.664241
31.378118,0.463444,1.532793,-9.642842
31.411534,0.386378,1.513788,-9.530460
31.446708,0.281628,1.553593,-9.690428
31.477848,0.306618,1.648467,-9.859974
31.511471,0.163560,1.993693,-9.916090
31.544878,0.063748,2.009705,-9.889154
31.577755,-0.098914,1.967505,-9.934646
31.611560,-0.082603,1.934285,-9.907710
31.644865,0.031575,1.909294,-9.850397
31.678265,0.156676,2.029607,-9.863116
31.711468,0.157424,2.002971,-9.791288
31.744879,0.168947,1.816815,-9.754625
31.778226,0.223567,1.750822,-9.625184
31.811495,0.267711,1.792723,-9.620395
31.844932,0.339091,1.974539,-9.527617
31.878167,0.259032,1.954337,-9.383810
31.911510,0.094874,1.587412,-9.363159
31.944841,0.017059,1.714459,-9.433641
31.978350,-0.055966,1.715507,-9.356575
32.011289,-0.329364,1.655650,-9.197205
32.044866,-0.381590,1.533541,-9.177602
32.077959,-0.450575,1.516781,-9.398475
32.111512,-0.378746,1.716105,-9.664839
32.144879,-0.327419,2.028560,-9.810292
32.178085,-0.263222,1.932040,-9.742504
32.211739,-0.286566,1.695455,-9.651970
32.244807,-0.279234,1.428940,-9.864463
32.278183,-0.142909,1.494634,-9.987619
32.311561,-0.023644,1.771623,-10.061992
32.344572,-0.026786,1.779554,-10.022935
32.378185,-0.120163,1.670165,-10.055856
32.411561,-0.121360,1.770575,-10.164647
32.444426,-0.076468,1.866496,-10.216124
32.477890,-0.076168,2.041429,-10.096410
32.511431,-0.109090,1.908995,-9.920579
32.544759,-0.015713,1.920518,-9.880924
32.578102,0.144854,1.987109,-9.796675
32.611457,0.260379,1.932190,-9.746245
32.644775,0.200073,1.764590,-9.565327
32.678114,0.267562,1.864850,-9.528066
32.711440,0.335350,1.935332,-9.575054
32.744759,0.370666,1.815468,-9.579094
32.778108,0.385929,1.845247,-9.516094
32.811669,0.479456,1.838962,-9.581788
32.844419,0.397452,1.651609,-9.486016
32.878128,0.360191,1.584569,-9.463869
32.911463,0.556971,1.674954,-9.651072
32.945962,0.609496,1.687224,-9.614709
32.977752,0.628051,1.566163,-9.557695
33.011506,0.646158,1.450339,-9.688932
33.046406,0.602911,1.411283,-9.749088
33.078176,0.435611,1.341399,-9.673219
33.111485,0.414062,1.410684,-9.695666
33.145081,0.456710,1.497776,-9.784853
33.178147,0.435910,1.604023,-9.701053
33.211514,0.322181,1.428043,-9.679205
33.244896,0.093676,1.410834,-9.705692
33.278090,-0.035765,1.355765,-9.692523
33.311516,0.018107,1.464406,-9.876434
33.344876,-0.014515,1.571101,-9.912648
33.377986,-0.055518,1.592201,-9.736818
33.411514,0.016012,1.664030,-9.673668
33.444900,0.199025,1.629312,-9.490356
33.478207,-0.007482,1.550002,-9.395781
33.511544,0.132434,1.648018,-9.590467
33.544376,0.238830,1.497776,-9.684443
33.578125,0.289260,1.514686,-9.979090
33.611522,0.301830,1.469793,-10.022935
33.645385,-0.014515,1.119030,-9.632217
33.678173,-0.210398,1.109453,-9.446211
33.711520,-0.343131,1.217196,-9.629075
33.744800,-0.238980,1.613600,-9.937040
33.778185,-0.225213,1.689469,-10.035355
33.811559,-0.261426,1.797511,-10.161355
33.844941,-0.192590,1.984714,-10.019942
33.878429,-0.126149,1.640685,-9.968764
33.911489,0.034119,1.675103,-9.629224
33.944942,0.299884,1.521869,-9.767494
33.978180,0.389221,1.479370,-9.804307
34.011461,0.408525,1.214353,-9.807449
34.044180,0.519411,1.404249,-9.933000
34.078190,0.417205,1.611655,-9.978940
34.111652,0.246761,1.566911,-9.951256
34.144855,-0.027085,1.705630,-9.829297
34.178207,-0.068237,1.847641,-9.850097
34.211585,-0.065843,1.801851,-9.944073
34.244783,-0.133332,1.781050,-9.901425
34.278187,-0.079460,1.639189,-9.641046
34.311562,0.050130,1.567061,-9.648379
34.344878,0.206807,1.555538,-9.647181
34.378146,0.357198,1.537132,-9.575802
34.411514,0.435461,1.440912,-9.629673
34.444851,0.348369,1.581127,-9.706590
34.478131,0.294946,1.460665,-9.666934
34.511515,0.255740,1.067253,-9.582985
34.544850,0.285968,1.350977,-9.639550
34.578084,0.363782,1.392128,-9.695367
34.611515,0.336397,1.424152,-9.616205
34.644847,0.324426,1.383299,-9.587923
34.678345,0.306020,1.212706,-9.758067
34.710921,0.473919,1.231262,-9.841268
34.743929,0.392663,1.347535,-9.785601
34.778103,0.344777,1.437021,-9.778867
34.811431,0.394010,1.334815,-9.775874
34.844783,0.434413,1.298601,-10.015752
34.878173,0.413912,1.551648,-10.019344
34.911505,0.367074,1.652806,-9.882570
34.944847,0.190495,1.670315,-9.662295
34.978232,0.168648,1.711915,-9.630721
35.011516,0.220125,1.577985,-9.541983
35.044853,0.141862,1.442558,-9.349542
35.078181,-0.038907,1.223930,-9.384558
35.111515,-0.218628,1.227072,-9.860572
35.147206,-0.187652,1.579930,-10.254582
35.177328,-0.174184,1.795865,-10.331798
35.211519,-0.254543,2.023921,-10.063488
35.246786,-0.317243,1.938624,-9.632367
35.277954,-0.120313,1.752020,-9.666186
35.311519,-0.004340,1.749027,-9.729485
35.345238,0.312305,1.619885,-9.598099
35.378184,0.534225,1.512741,-9.284896
35.411521,0.644811,1.144469,-9.080035
35.444843,0.792958,1.022061,-9.284447
35.478187,0.744174,0.960259,-9.402216
35.511514,0.346872,1.158087,-9.685340
35.545664,0.155180,1.430138,-9.679953
35.578277,0.003442,1.894629,-9.894841
35.611476,-0.179272,1.757407,-9.894990
35.644847,-0.187503,1.775214,-9.694918
35.678185,-0.111035,1.906451,-9.656010
35.711469,-0.059857,1.969002,-9.641046
35.744850,-0.022446,1.807687,-9.578645
35.778186,0.037860,1.168262,-10.090873
35.814894,-0.034418,1.428492,-10.223905
35.844941,0.015713,1.687524,-10.161205
35.878143,0.060306,1.841207,-10.070222
35.911518,0.153085,1.765787,-10.086832
35.944850,0.388323,1.399760,-9.828549
35.978276,0.438903,1.235303,-9.699557
36.011517,0.404036,1.125914,-9.575054
36.044819,0.383685,1.085510,-9.555899
36.078184,0.529586,1.116785,-9.741008
36.111511,0.519261,1.294860,-9.778269
36.144850,0.468831,1.496579,-9.675015
36.178207,0.560263,1.592351,-9.664091
36.211516,0.518812,1.621531,-9.635659
36.244851,0.511180,1.475180,-9.298064
36.278181,0.590641,0.967891,-9.436035
36.311596,0.680277,1.073987,-9.451299
36.345044,0.999166,1.254756,-9.630571
36.378166,0.908782,1.215849,-9.780364
36.411515,0.280431,1.133994,-10.225103
36.444846,0.042798,1.842853,-10.000638
36.478523,0.165355,1.781799,-9.325449
36.511513,0.159519,1.239193,-9.050854
36.544844,0.096071,1.141476,-9.427955
36.578311,0.564603,0.789516,-10.136065
36.611519,0.742379,0.626854,-10.589333
36.645072,0.479755,1.297105,-10.408116
36.678180,0.502950,1.134144,-9.551410
36.711555,0.566698,0.706165,-9.213067
36.744913,0.366176,0.388922,-9.358221
36.778191,0.244068,0.716042,-9.601690
36.811516,0.510731,1.155244,-9.981933
36.844944,0.338193,1.127260,-9.796974
36.878184,0.231947,1.032686,-9.701502
36.914901,-0.138719,0.979563,-9.562633
36.944813,-0.091731,1.083265,-9.655262
36.978180,0.280132,1.434627,-10.012759
37.011576,0.011373,1.443007,-9.675314
37.044848,-0.026038,1.361302,-9.618899
37.078432,0.231947,1.506456,-9.569218
37.111521,0.506541,1.859463,-9.299561
37.144844,0.406131,1.441361,-9.037686
37.178510,0.479157,1.145666,-8.903007
37.211966,0.712749,0.750759,-9.293276
37.244943,0.652294,0.651096,-10.368161
37.277689,0.545748,1.513938,-10.265207
37.311517,0.383984,2.711381,-10.473360
37.344611,-0.028731,1.986959,-10.744513
37.378280,-0.197978,0.098764,-11.130143
37.411514,-0.311108,0.308863,-11.300287
37.452606,0.346274,2.076296,-11.110690
37.478144,0.667408,2.052802,-10.602652
37.511514,0.494121,1.260443,-9.429152
37.544795,0.436508,0.980760,-9.448156
37.578149,0.549190,0.886186,-9.663642
37.611517,0.747467,1.109004,-9.500531
37.644872,0.855359,1.087904,-9.513401
37.678261,0.534674,1.110650,-9.554852
37.711482,0.019154,1.314913,-9.243445
37.744847,-0.293749,1.038223,-9.731879
37.778537,-0.577322,0.823335,-10.109877
37.811590,-0.694493,1.117384,-10.730147
37.844596,-0.493223,2.016888,-10.934859
37.878185,-0.492625,2.597053,-10.475455
37.911562,-0.351212,1.707576,-9.836330
37.944851,-0.366027,1.172752,-9.357323
37.978242,-0.392364,0.555624,-8.888342
38.014685,-0.153983,0.796250,-9.174459
38.044813,0.007482,1.195797,-9.465814
38.078138,-0.153983,1.218543,-10.178264
38.111602,-0.089935,1.156141,-10.570927
38.144824,0.321882,1.852280,-10.643804
38.177890,0.309761,1.497627,-9.973253
38.211517,0.113130,1.311471,-9.255267
38.244962,-0.319787,1.330326,-9.296718
38.278345,0.228954,1.320599,-9.321858
38.311595,0.738189,1.127410,-9.389347
38.344264,0.906387,0.832613,-9.722602
38.378183,0.638975,0.465390,-9.490805
38.411549,0.399397,0.376801,-8.910938
38.444815,0.629398,0.733999,-9.034992
38.478182,0.683270,1.003655,-9.414038
38.511468,0.760635,2.052203,-9.619797
38.544853,0.717089,2.267839,-10.337335
38.578432,-0.341784,2.553956,-10.183801
38.611519,-0.501753,2.016738,-10.121999
38.644850,-0.372910,1.265381,-9.953351
38.678065,-0.872718,0.375155,-9.894092
38.711520,-0.601714,1.220937,-10.024581
38.745713,-0.367224,1.458121,-10.494759
38.778180,-0.460451,0.720082,-10.328207
38.811513,-0.452969,0.420946,-10.030267
38.844430,-0.651695,0.237184,-9.273373
38.878143,-1.017722,0.526594,-9.008805
38.911520,-0.603959,0.695840,-10.001536
38.944584,0.674590,2.282654,-11.841995
38.978181,0.980311,3.174675,-11.576378
39.011513,0.070931,1.509897,-10.064236
39.054524,-0.286417,0.301381,-8.624971
39.078148,-0.066142,0.086643,-8.828635
39.111538,0.809568,0.753752,-9.997795
39.144993,0.997670,1.077280,-10.503738
39.178147,1.347235,1.337958,-10.409014
39.211514,1.354119,0.792808,-9.670077
39.244801,0.935268,0.315148,-9.102332
39.278171,0.438603,0.511629,-9.127322
39.311506,0.069734,0.639724,-9.408501
39.345034,-0.011971,1.404698,-9.221447
39.378144,0.530185,2.375582,-9.395931
39.411552,-0.640921,1.612103,-9.409100
39.444804,-0.629698,1.094339,-9.644039
39.478186,-0.439651,1.395420,-9.287440
39.511517,-0.873167,1.254756,-9.930456
39.544840,-1.210163,1.437919,-10.265357
39.578181,-1.299350,1.119629,-10.399886
39.611514,-0.590042,0.917611,-11.087794
39.644984,-0.108641,1.327034,-10.196221
39.678185,1.067852,1.828338,-12.016329
39.716251,0.515221,1.153597,-9.803259
39.744870,0.097567,1.176792,-10.412456
39.778140,-0.088140,1.826243,-8.729421
39.811516,0.362286,2.112659,-9.414636
39.844809,0.212044,2.707041,-8.879663
39.877938,0.045940,2.275022,-9.834235
39.910940,0.605904,1.322544,-8.952539
39.944973,0.441297,1.419663,-9.190471
39.977743,-0.024541,1.011886,-9.574754
40.011072,0.564453,1.354718,-9.421370
40.044848,0.202317,1.466950,-9.147673
40.077809,-0.550985,1.535636,-9.908907
40.111512,-0.088738,2.185086,-9.168025
40.144800,0.063898,-0.036214,-10.891762
40.178164,-0.117619,-0.921950,-8.963014
40.211427,-0.565052,-0.930929,-8.784789
40.244758,-3.189041,-0.100560,-9.062676
40.278088,-0.535273,0.457309,-9.694618
40.311429,0.481401,1.034931,-9.983429
40.344037,-0.773953,1.884454,-9.814931
40.378130,-0.579567,1.764590,-9.058336
40.411365,-0.656334,0.828124,-8.202678
40.444779,0.867031,1.239642,-9.830943
40.478138,1.119030,1.409487,-10.064087
40.511489,1.472038,2.772734,-10.289299
40.544852,1.555688,2.703150,-9.353582
40.577923,0.798944,2.556650,-8.228566
40.611517,-0.048784,1.958377,-8.852877
40.644851,-0.121360,1.442109,-8.768628
40.677896,-0.774552,-0.175830,-9.090210
40.711517,0.949634,-0.242871,-10.344218
40.744848,0.291205,-0.385181,-11.024794
40.777917,0.354803,-0.670849,-10.879940
40.811516,-0.214438,-0.276391,-10.102096
40.844743,0.622664,-0.382487,-10.049422
40.878126,0.033670,0.057463,-10.129331
40.911521,0.494271,0.112980,-9.635809
40.944163,-0.178973,0.116422,-9.007159
40.978141,0.513275,0.569242,-9.851145
41.011689,0.573132,0.191094,-8.752915
41.044791,0.092928,0.312903,-9.538690
41.078274,0.520309,-0.059708,-9.592113
41.111516,-0.217132,1.199837,-10.257425
41.144091,-0.029330,1.245029,-9.381715
41.178151,0.862991,0.830818,-10.593523
41.211515,0.963252,0.672795,-8.835817
41.245626,0.761982,-0.034717,-8.897321
41.277643,1.598636,-0.676087,-9.605581
41.311573,0.819594,-0.237034,-9.141089
41.353541,1.250865,-0.112232,-10.694981
41.378146,1.000213,0.216084,-9.359268
41.411473,0.087092,0.086793,-9.655861
41.444937,0.670550,0.412865,-9.354031
41.478334,0.288512,0.742828,-9.632516
41.511612,-0.080059,0.709308,-10.795541
41.544852,0.658279,0.867181,-12.071397
41.578181,0.743277,1.009042,-8.914081
41.616628,0.721129,0.328167,-8.835518
41.644878,0.640621,0.280581,-8.356661
41.678145,0.090384,0.559216,-9.590766
41.711233,1.257001,0.348668,-10.328506
41.744850,0.034268,0.741182,-9.962479
41.778063,0.691051,0.888580,-10.507329
41.811471,0.178524,0.208902,-9.892297
41.844850,0.197978,0.318141,-9.587175
41.877706,0.305571,-0.072278,-8.842551
41.911513,-0.046689,-0.427680,-9.839323
41.944845,-0.181068,-0.327568,-10.207445
41.977623,-0.038458,0.042499,-10.958652
42.011516,-0.379046,-0.292103,-10.584096
42.044563,-0.319937,-0.318141,-9.637455
42.078416,0.154581,0.407328,-9.534650
42.111357,0.528988,0.158921,-10.050320
42.144002,1.229018,0.724571,-9.774827
42.178186,0.897708,0.735345,-9.844561
42.211118,0.559665,0.746718,-9.792186
42.245334,0.055368,0.263521,-9.952303
42.277875,0.856706,0.192441,-9.464019
42.311472,0.222070,-0.174933,-10.506880
42.344807,0.039805,0.256937,-9.472399
42.378308,0.867181,0.400145,-9.587923
42.411701,-0.251251,0.167600,-9.313927
42.444519,0.615481,0.218329,-9.819720
42.478112,0.936466,0.508487,-9.950807
42.511473,0.528689,0.347321,-9.774528
42.544814,0.374407,0.736992,-10.738228
42.578151,-0.088140,0.539164,-10.005576
42.611571,0.496066,0.203365,-10.030118
42.644804,0.168199,0.177776,-9.694020
42.678180,0.418402,0.472123,-9.893045
42.710974,0.601116,0.561161,-9.773480
42.744837,0.832913,0.583009,-9.496491
42.777104,0.771110,0.615781,-10.062141
42.811430,0.430523,0.537218,-9.818373
42.844766,0.217730,0.701975,-9.680402
42.878101,0.369917,0.427231,-9.690428
42.911465,0.027085,0.417504,-10.008120
42.944839,0.591987,0.301381,-9.908458
42.978133,0.401791,0.382038,-10.219715
43.011236,0.293899,0.851169,-10.064087
43.044821,0.348668,1.028496,-10.118557
43.078115,0.355103,0.866732,-9.882420
43.111473,0.784578,0.730707,-9.317817
43.145095,1.300846,1.379109,-9.645685
43.177486,0.299136,0.739535,-10.361128
43.211475,0.405083,1.072940,-10.428767
43.244855,0.502800,0.905190,-10.432059
43.277950,0.688058,1.114541,-9.534800
43.311472,0.332656,0.925991,-9.242248
43.344805,0.254992,0.727863,-9.896786
43.377906,0.758390,1.019817,-9.643740
43.411473,0.182265,0.850271,-9.718860
43.444917,0.270554,0.946192,-10.389859
43.478136,0.601415,0.968489,-9.970560
43.511582,0.424836,1.005152,-9.655561
43.549363,0.597524,0.946342,-9.520883
43.578121,0.249006,0.690153,-8.788680
43.611473,0.512527,0.880948,-9.794281
43.644864,0.122857,0.909679,-9.510109
43.678137,0.649151,0.958762,-9.797872
43.711573,0.677434,0.772158,-9.846805
43.744665,0.427979,0.890525,-9.877332
43.778246,0.298687,0.948736,-9.884665
43.811473,0.550686,0.820043,-9.618300
43.844865,0.353157,0.943798,-9.490655
43.878177,0.267711,0.716191,-9.554104
43.911374,0.254094,1.020715,-10.312793
43.944847,0.278934,0.954273,-9.902323
43.978117,0.305122,0.561161,-10.094913
44.010692,-0.019304,0.134828,-10.393900
44.044825,0.438903,0.580166,-9.983878
44.077407,0.511629,0.871521,-9.775276
44.111450,0.417953,0.798794,-9.972505
44.144805,-0.061653,0.892022,-9.922225
44.178263,0.438603,0.909979,-10.187991
44.211469,0.248258,0.455812,-9.338468
44.244808,0.522703,0.110885,-9.750285
44.278187,0.005238,0.131686,-9.038434
44.311487,0.134828,0.863889,-10.155369
44.344877,0.467933,0.477361,-9.744000
44.378144,-0.261875,0.676087,-9.268884
44.411515,0.348668,0.637778,-9.949909
44.444107,0.111334,0.740134,-9.126274
44.478138,0.502052,0.651246,-9.862967
44.511510,-0.275942,0.857005,-9.759264
44.544060,0.011223,0.612638,-9.508911
44.577569,-0.048634,0.442494,-9.286093
44.611556,0.559814,0.519560,-9.465515
44.645693,0.222369,0.586151,-9.635210
44.678192,0.483347,0.471974,-10.231088
44.711551,0.008081,0.697935,-10.204751
44.744879,0.754500,0.637030,-9.705093
44.778150,-0.125102,0.746419,-9.267537
44.811622,-0.136923,0.583458,-9.988367
44.844781,0.606802,0.618474,-9.789642
44.878181,0.254393,0.566099,-9.464467
44.911590,0.394309,0.466287,-9.811489
44.946108,0.464791,0.767968,-9.863565
44.978140,0.312903,0.627303,-10.278824
45.011192,-0.097118,0.671897,-9.785452
45.044829,-0.212792,0.646906,-9.863416
45.077654,0.063748,0.633139,-10.181407
45.111671,0.023494,0.824233,-9.674716
45.144771,-0.296592,0.435760,-9.711079
45.178094,0.221172,0.438903,-9.798471
45.211508,-0.336697,0.672944,-9.072852
45.244757,-0.385031,0.850421,-9.996448
45.277235,-0.203963,0.598422,-10.105239
45.311421,-0.262623,0.576724,-10.661461
45.344757,-0.382038,0.380542,-9.535697
45.378117,-0.029779,0.654239,-9.950358
45.411440,-0.118218,0.581812,-9.803558
45.444767,-0.192740,0.554726,-9.391891
45.478107,0.256039,0.543653,-10.204452
45.511191,-0.240925,0.611142,-9.493498
45.544761,-0.472722,0.678331,-9.335775
45.578090,-0.909231,0.683419,-10.421284
45.611451,-0.036214,0.698234,-9.903071
45.644774,-0.615781,0.421843,-9.649276
45.678080,0.104600,0.304074,-9.490056
45.711569,-0.644811,0.642417,-9.822114
45.744211,-0.190645,0.434713,-9.703896
45.778199,-0.278486,0.360490,-9.707637
45.811505,0.038907,0.359442,-9.593160
45.843854,-0.395656,0.207555,-9.585529
45.878210,0.172389,0.119714,-10.143248
45.911496,-0.133182,0.401642,-9.429601
45.944762,0.501454,0.395357,-8.919019
45.978106,0.631044,0.381590,-9.581788
46.011521,-0.172389,0.320984,-10.546386
46.044779,0.275942,0.137073,-10.009766
46.078127,-0.722177,0.098166,-9.320810
46.111475,-0.338642,-0.149344,-9.899779
46.144911,-0.462546,0.486190,-9.361663
46.178138,-0.165954,0.287165,-9.980885
46.211509,-0.874962,0.117170,-9.254668
46.244208,0.057313,0.306618,-10.431161
46.278137,-0.574928,0.285968,-10.741520
46.311536,-0.331908,0.222669,-10.319976
46.344458,-0.772906,0.369468,-10.192630
46.378139,0.780987,0.209051,-10.552222
46.411511,0.245714,0.176878,-10.320874
46.444175,-0.529287,-0.046689,-10.326560
46.478238,-1.133545,0.073924,-10.226000
46.511442,-0.490530,0.445487,-10.960149
46.544805,-0.013468,0.599320,-11.501407
46.578182,-0.392813,0.356599,-9.864463
46.610652,-0.566548,-0.031425,-9.024667
46.644807,-0.727714,0.086943,-9.468957
46.678135,-0.437855,0.357347,-9.848152
46.711439,-0.421544,0.591389,-8.449140
46.744805,-0.767818,0.318889,-9.892746
46.778210,-1.232459,0.307067,-9.316022
46.811453,-0.316495,0.467784,-9.946617
46.844805,-0.616529,0.334003,-8.999078
46.878131,-0.907884,0.149344,-9.034693
46.911306,-0.782333,0.619522,-9.030353
46.944848,-0.178225,0.420347,-9.334577
46.977894,-0.770212,0.586301,-9.291929
47.011594,-0.664864,0.123306,-9.085422
47.044573,-0.700329,0.392962,-8.901960
47.078327,-0.515969,0.523152,-9.586426
47.111689,-0.124653,0.360041,-9.150965
47.145033,0.005836,0.604707,-9.381266
47.178217,-0.259930,0.275792,-9.163087
47.211470,-1.254606,0.534375,-9.886012
47.245097,-0.402689,0.285968,-9.807150
47.277953,-0.630745,0.243768,-9.913696
47.311474,0.012420,0.146949,-10.709347
47.344898,-1.142823,0.235837,-9.217407
47.377920,-0.512976,0.482748,-9.751034
47.412168,-0.489632,0.609645,-9.909506
47.444779,0.152486,0.320535,-9.576849
47.478135,-0.293001,0.075121,-9.537344
47.511505,-0.002544,0.412865,-9.841717
47.544662,-0.659177,0.389072,-9.452795
47.578140,-0.091731,0.534824,-9.836480
47.611510,-0.109539,0.656633,-9.213367
47.644194,0.426931,0.579118,-10.163899
47.678143,-0.184360,0.130339,-9.614859
47.711738,-0.413314,0.557420,-9.363309
47.744777,-0.021399,0.162213,-9.458631
47.777737,-0.895763,0.176728,-8.976931
47.811521,-0.357497,0.714246,-10.224654
47.844119,-0.525995,0.223417,-9.895888
47.878085,-0.303027,0.602313,-10.281219
47.911420,-0.044594,0.272350,-9.160393
47.944835,-0.318291,0.283573,-9.125377
47.978108,-0.399547,0.803283,-9.861171
48.011450,0.448031,0.296143,-9.730832
48.044779,-0.369618,0.235837,-9.770637
48.078143,0.027085,-0.029480,-10.006923
48.111505,-0.309013,-0.134529,-9.050106
48.145082,0.140365,0.430523,-9.975648
48.178142,-0.471076,0.217880,-9.746993
48.211556,-0.659626,0.291355,-9.729485
48.244585,-0.348818,-0.092330,-9.642094
48.278136,-0.334901,0.075570,-9.633414
48.311672,-0.387426,0.349716,-9.201096
48.344849,-0.272799,0.508337,-9.650474
48.378138,-0.437706,0.276839,-9.959935
48.411519,-0.051028,-0.117619,-9.188975
48.444598,-0.523451,0.453717,-9.247336
48.478136,-0.852067,0.196631,-9.015988
48.511588,0.090085,0.418551,-9.861769
48.545278,-0.563106,0.501753,-9.565776
48.578144,-0.523750,0.234939,-9.522679
48.611577,-0.290607,0.136175,-9.481676
48.644377,-0.266215,0.263372,-9.909955
48.678139,-0.187652,0.162512,-9.756271
48.711472,-0.112831,0.193488,-10.040144
48.745312,-0.385031,0.185258,-9.470902
48.778280,-0.423938,0.282975,-9.356425
48.811089,-0.342383,0.531981,-9.492301
48.844810,-0.364231,0.316046,-9.724397
48.878316,-0.616679,0.788319,-9.855634
48.912032,-0.601415,0.709607,-9.220400
48.944456,-0.411668,0.645859,-9.412242
48.978177,-0.526743,0.607101,-9.255117
49.016984,-0.422292,0.619372,-9.796226
49.044789,-0.202018,0.549489,-9.817924
49.078138,-0.357198,0.241224,-9.497838
49.111779,-0.758390,-0.248557,-8.885948
49.144837,-0.468831,-0.697486,-9.090659
49.178094,-0.491278,0.322181,-9.326946
49.211426,-0.358694,-0.107593,-9.636856
49.243957,-0.204113,0.112232,-9.373634
49.278161,0.025589,-0.148446,-10.115714
49.311414,0.200372,-0.225362,-10.851807
49.344753,0.281778,0.136774,-9.884964
49.378089,-0.463145,0.023344,-10.025629
49.411426,-0.495318,-0.170743,-10.322071
49.444212,-0.345825,-0.025888,-10.093566
49.478094,-0.580016,0.081406,-10.115564
49.511453,-1.044358,-0.062102,-9.232970
49.544554,-0.010625,-0.113729,-10.570179
49.578090,-0.060755,0.386228,-9.547220
49.611433,-0.444739,0.214738,-9.521781
49.644764,-0.427530,0.143208,-10.129032
49.678113,-0.307367,0.199624,-9.689830
49.711470,0.586600,-0.097866,-10.385669
49.744637,-0.125550,0.224165,-9.260055
49.778121,-0.193488,0.197229,-10.018895
49.811480,-0.833810,0.436209,-9.880924
49.844375,0.328167,0.388623,-10.021738
49.878110,-0.218329,0.025290,-9.027959
49.911443,-0.250951,0.299136,-9.980436
49.944789,-0.727265,0.149942,-9.642692
49.978107,-0.014515,0.484095,-9.382463
50.011471,-0.411069,-0.142310,-9.303003
50.044372,-0.726517,0.313801,-9.440225
50.078060,-0.421993,0.201419,-10.080398
50.111473,-0.440399,-0.153683,-9.747891
50.149437,-0.486040,0.333255,-9.556199
50.177540,-1.268074,-0.079760,-9.404461
50.211448,-0.305571,0.280281,-10.329853
50.244778,-0.849822,0.129740,-9.292228
50.278109,-0.513724,0.349267,-9.500082
50.311533,-1.053337,0.469580,-9.451299
50.344924,-1.863803,0.163410,-9.978192
50.378092,-1.586515,0.065095,-9.738164
50.411419,-0.549489,0.175531,-9.426458
50.444286,-1.769229,0.157873,-8.928297
50.478099,-1.002159,0.359742,-9.598697
50.511452,-0.830967,0.160417,-9.754176
50.544778,-0.684168,0.305421,-9.962479
50.578345,-0.352259,0.242422,-9.695965
50.611444,-0.292253,-0.013468,-9.529412
50.644806,-0.177925,0.150092,-9.898133
50.679125,-0.503698,0.200821,-9.674417
50.711421,0.041900,0.162213,-9.648229
50.744442,-0.220723,0.348069,-9.383361
50.777585,0.825281,0.231198,-9.761958
50.813913,-0.132284,0.269357,-9.332632
50.858929,-0.346423,0.103403,-10.096859
50.878081,0.040404,0.467185,-10.041191
50.911431,0.252448,0.382787,-10.346613
50.944071,0.400744,-0.210697,-9.970261
50.977819,0.169845,0.131237,-9.575802
51.010820,0.503100,0.187353,-10.489222
51.044795,0.164158,0.086943,-10.118407
51.078096,0.305421,0.393711,-10.551923
51.111158,-0.318739,-0.240027,-10.077405
51.144757,0.186455,0.044893,-10.196820
51.178121,-0.124353,-0.330561,-10.157913
51.211451,0.124802,-0.244517,-10.184400
51.244462,-0.864338,0.210997,-9.692673
51.278101,-0.378297,-0.001945,-10.121849
51.311292,-0.098764,0.078114,-10.032362
51.344957,-1.262837,-0.005836,-9.483622
51.378096,-1.622130,0.002993,-8.981869
51.411426,-0.037111,0.271303,-9.603037
51.444773,-0.344628,0.364081,-9.713922
51.478133,-0.219227,-0.753901,-10.025030
51.511446,-0.029031,-0.093527,-9.487064
51.544781,-0.043995,-0.045192,-9.897235
51.578143,-0.025290,0.536620,-10.755736
51.611097,-0.574180,-0.188251,-9.791138
51.644743,-0.596028,0.202168,-9.375729
51.677179,-0.341635,0.073924,-10.288252
51.711496,-0.502052,0.223716,-9.971458
51.744761,-0.756894,0.272799,-9.209177
51.778104,-0.655137,0.221172,-9.371090
51.811437,-0.763329,-0.040404,-9.631170
51.844777,-0.894865,0.265467,-9.274122
51.878124,-1.531745,0.079909,-9.113555
51.911444,-0.497563,0.105199,-9.359568
51.944779,-0.333404,0.040853,-9.213367
51.978147,-0.456261,0.238980,-9.576550
52.011481,-0.779490,0.095771,-9.109814
52.044812,-0.502950,0.045940,-8.859311
52.078148,-0.402839,0.046389,-9.791288
52.111053,-0.416456,0.066591,-9.454741
52.144148,-0.527641,0.304374,-9.897235
52.178125,-0.520608,-0.158173,-10.066631
52.211438,-0.242721,0.067938,-10.188889
52.244787,-0.458805,-0.103703,-10.325812
52.278126,1.042113,0.221023,-9.562484
52.311432,-0.008230,0.267113,-10.136664
52.344771,-0.251101,-0.032622,-10.503139
52.378117,-0.175082,0.184210,-11.001899
52.411432,0.472572,-0.180469,-10.171381
52.444836,0.098016,0.125102,-9.729485
52.478103,-0.368571,0.169097,-10.347361
52.511450,-0.265167,0.199025,-9.756720
52.544784,-0.013318,0.435611,-9.519237
52.578128,0.095323,0.150840,-10.187093
52.611452,-0.402988,0.208153,-9.557545
52.644706,-0.210847,0.378597,-10.001985
52.678221,-0.245115,-0.040703,-9.226984
52.711688,-0.349416,0.520907,-9.475840
52.744966,-0.660225,0.385929,-10.520049
52.778174,-0.219676,0.086344,-9.341461
52.811560,0.416007,0.267711,-9.287290
52.844981,-0.370067,0.143208,-9.159046
52.877822,-0.825281,0.401941,-10.337784
52.911485,-0.330711,0.298987,-10.006175
52.944561,-0.016161,-0.026786,-10.453607
52.978107,-0.393860,0.146800,-10.468572
53.011467,-0.174184,0.265467,-9.752081
53.044848,-0.340438,0.476463,-10.114217
53.078146,0.015713,0.241374,-9.342060
53.111615,-0.159070,0.260828,-9.571911
53.144787,-0.079460,0.342383,-10.367712
53.178117,-0.422891,0.180320,-9.721105
53.211446,0.288212,0.341784,-9.610369
53.244833,-0.344328,0.334751,-9.914593
53.277929,-0.138120,0.300333,-9.529412
53.311518,-0.871221,0.562957,-9.692224
53.344830,-0.034717,0.175232,-9.452945
53.378142,-0.459404,0.552482,-9.385157
53.411488,-0.477660,0.407627,-9.409399
53.447962,-0.650348,0.327419,-9.828998
53.478098,-0.384283,0.440100,-10.015303
53.511113,-0.363034,0.421694,-9.157400
53.544768,-0.375155,0.174334,-9.981783
53.578097,-0.477361,0.349416,-9.349542
53.611102,-0.659177,0.310210,-9.486315
53.644781,-0.582710,0.327419,-10.359931
53.677756,-0.552482,0.308115,-10.216423
53.711510,-0.397452,0.379195,-10.149383
53.744783,-0.341336,0.355402,-10.437745
53.778113,-0.407627,0.370366,-10.443132
53.811458,-0.678631,0.360490,-10.019044
53.844775,-0.318440,0.254692,-10.125590
53.878186,-0.378297,0.347621,-9.737416
53.911309,-0.316794,0.277288,-10.260418
53.944367,-0.388922,0.436060,-9.767794
53.978098,-0.298538,0.523601,-9.785003
54.011435,-0.232395,0.419150,-8.813670
54.044775,-0.442644,0.343879,-9.254219
54.078104,-0.652892,0.391915,-8.808433
54.111444,-0.108192,0.417653,-9.217706
54.144889,-0.363632,0.360939,-9.325599
54.178132,-0.380093,0.190645,-9.622341
54.211456,-0.495468,0.313352,-9.298663
54.245097,-0.486040,0.399996,-9.072702
54.278268,-1.277203,0.243319,-8.778205
54.311460,-0.953076,0.304074,-10.096260
54.344832,-0.429775,0.386079,-10.552821
54.378001,-0.603809,0.397302,-9.872993
54.411636,0.071829,0.324426,-10.302468
54.444771,0.265467,0.394459,-9.952303
54.478140,0.549040,0.547843,-10.161355
54.512543,-0.240476,0.524648,-10.061692
54.544196,0.808670,0.434114,-10.281219
54.578149,0.767369,0.564603,-10.407817
54.611472,0.277288,0.448630,-10.293938
54.644781,0.146052,0.874663,-10.330900
54.678544,-0.055667,0.502950,-10.364869
54.711690,-0.321433,0.549788,-9.774528
54.745026,-0.234790,0.519411,-9.674716
54.778361,0.323827,0.534824,-8.932487
54.811675,-0.315148,0.533627,-9.418677
54.845308,-0.285369,0.416157,-10.001536
54.878749,-0.562059,0.638826,-9.677110
54.911514,-0.347022,0.576724,-10.172578
54.944831,-0.638227,0.577921,-9.614410
54.978058,-0.368122,0.477660,-9.797573
55.011511,-0.192740,0.537069,-9.473745
55.045037,0.533178,1.193851,-9.740858
55.078266,-0.043396,0.670999,-9.434539
55.111506,0.070033,1.201783,-9.686837
55.144823,-0.255590,0.752105,-9.923871
55.178199,0.460002,1.145517,-9.748789
55.211614,0.221023,1.085660,-9.535997
55.244784,-0.033221,0.913720,-10.100600
55.279507,-0.208752,0.784428,-9.958289
55.311728,-0.180469,0.902347,-9.862667
55.344882,-0.094125,0.775899,-9.745198
55.378029,-0.040553,0.834708,-10.361427
55.411519,0.039655,0.903544,-9.898133
55.445461,0.006734,0.857005,-9.480330
55.478246,-0.045940,0.582410,-9.938536
55.511586,-0.299436,0.540061,-9.983728
55.545215,0.381290,0.771409,-9.710929
55.579083,-0.264868,0.678930,-9.405508
55.611478,-0.046988,0.942451,-9.132859
55.644839,-0.285968,0.597973,-9.102182
55.677766,-0.187353,0.125251,-9.059234
55.711486,-0.122857,0.506691,-8.910340
55.744834,-0.146052,0.447432,-9.015988
55.778420,-0.471076,0.038309,-8.975135
55.811626,-0.255590,0.200671,-9.207381
55.845050,-0.369020,0.018705,-8.796910
55.878150,-0.292402,-0.039206,-8.706526
55.911963,-0.137073,0.062251,-8.801400
55.944925,-0.261426,0.067489,-9.021674
55.978601,0.113280,0.636282,-10.631533
56.012180,0.782633,0.767219,-11.589547
56.045343,0.059109,0.273697,-10.671338
56.078333,-0.080209,-0.048784,-9.769889
56.111898,0.593334,0.447432,-10.102096
56.145462,0.787720,0.854461,-10.516457
56.178257,2.077194,0.262474,-10.126787
56.212443,1.436123,-0.069883,-9.953052
56.245465,1.106759,0.679229,-9.992108
56.278858,1.653704,0.576724,-10.347510
56.311957,1.787335,0.605156,-10.454056
56.345279,1.095087,0.933622,-10.368012
56.378197,1.576937,0.844136,-10.100450
56.411479,0.978515,0.660075,-9.736668
56.444847,0.831865,0.671598,-10.155668
56.478191,1.059322,0.784279,-9.854886
56.511963,0.821240,0.456261,-9.561137
56.544246,0.755547,0.538715,-9.462971
56.578907,-0.179871,0.623413,-9.540336
56.611719,0.462995,0.509983,-9.602887
56.645156,-0.266514,0.493822,-9.443517
56.678520,-0.168498,0.516867,-9.518040
56.715686,-0.338792,0.513724,-9.637155
56.745301,0.346423,0.471824,-9.360316
56.778384,-0.089786,0.392962,-9.596901
56.810460,-0.293151,0.525995,-10.165844
56.844803,-0.068686,0.485142,-9.733675
56.878131,-0.024990,0.539014,-9.803708
56.911447,-0.283274,0.638227,-10.223157
56.944821,-0.212643,0.501902,-10.100749
56.978113,-0.307067,0.355402,-10.120203
57.011438,-0.463743,0.559665,-10.222559
57.044769,-0.566698,0.413613,-9.915342
57.078163,-0.341934,0.404784,-9.624436
57.111458,-0.473021,0.509385,-9.858777
57.144646,-0.135128,0.513874,-9.128220
57.179135,-0.608598,0.595130,-9.762706
57.211525,-0.600068,0.578969,-9.231922
57.245838,-0.515969,0.489183,-9.899330
57.278421,-0.535422,0.543204,-9.241649
57.311641,-0.922399,0.269357,-9.268734
57.345536,-0.301231,0.128693,-8.954634
57.378472,-0.554876,0.194087,-9.303302
57.411660,-1.073389,0.265766,-9.212618
57.445862,-0.737889,0.090384,-9.486315
57.478369,0.262623,0.001197,-8.628412
57.511661,-0.711552,0.056864,-8.992643
57.545320,-1.416370,0.324576,-8.729571
57.578210,-0.008829,0.158771,-8.761295
57.611661,-0.520309,0.321583,-8.620930
57.644931,-0.373509,0.214139,-9.748340
57.678192,0.070332,0.027085,-9.449952
57.712010,-0.014665,0.219975,-9.770787
57.745293,-0.055966,-0.124054,-10.528728
57.778357,0.645859,-0.064646,-10.405722
57.812459,0.386228,-0.035615,-10.221960
57.856883,0.615182,0.347770,-10.249494
57.878929,1.021014,0.246312,-10.316534
57.911776,0.913869,0.459853,-10.094764
57.944050,0.950682,0.225063,-10.091771
57.978504,0.878254,0.259331,-10.177067
58.012184,1.250566,0.418701,-10.149533
58.044985,1.159434,0.462846,-10.021289
58.078747,0.830069,0.469879,-9.934496
58.111881,0.914318,0.365428,-9.633115
58.145531,1.212258,0.309312,-10.519899
58.178637,1.029394,0.386528,-10.042987
58.211661,0.159070,0.230600,-10.365917
58.245424,0.488884,0.469131,-9.544526
58.278560,0.509385,0.229253,-9.601091
58.312375,0.349267,0.367373,-9.834684
58.345418,-0.160567,0.441447,-9.459230
58.377152,0.141862,0.295694,-9.638652
58.412108,-0.106695,0.213690,-9.219053
58.445290,-0.080807,0.370965,-9.683844
58.478386,-0.174184,0.359442,-9.430349
58.512358,-0.294497,0.174783,-9.115051
58.545350,-0.225512,0.146949,-9.511904
58.578349,-0.578819,0.217431,-9.880325
58.612208,-0.416157,0.204861,-9.413888
58.645361,-0.481252,0.331758,-9.650623
58.678337,-0.478558,0.305122,-9.291031
58.712081,-0.347471,0.191244,-9.984926
58.745353,-0.350763,0.115824,-10.019792
58.778401,-0.627004,0.189298,-9.745796
58.812503,-0.235239,0.147698,-9.426757
58.845390,-0.440549,0.253046,-9.936142
58.878385,-0.293899,0.138719,-10.107034
58.912192,-0.139916,0.231198,-9.793832
58.951820,-0.640472,0.292552,-9.903819
58.977445,0.083501,0.377250,-9.650623
59.011857,-0.301830,0.458506,-9.506367
59.045364,-0.182864,0.377400,-9.808796
59.078482,-0.092330,0.515520,-9.853389
59.112505,-0.148595,0.257087,-9.542581
59.145304,-0.325024,0.367523,-9.689381
59.178746,-0.294348,0.117919,-9.191668
59.211620,-0.294797,0.143358,-9.296867
59.244764,-0.158173,0.035316,-9.570864
59.277978,0.376951,0.233892,-9.566225
59.311438,0.029929,0.433965,-9.321409
59.344871,0.276989,0.395506,-10.145941
59.378123,0.462397,0.640771,-10.138759
59.411518,0.707961,0.513874,-10.130079
59.445074,0.702274,0.603959,-10.027275
59.477425,0.204861,0.320834,-10.345116
59.511743,1.176194,0.370516,-10.177366
59.546008,1.329578,0.359742,-9.772582
59.580064,0.458207,0.355402,-10.495208
59.611665,0.411817,0.380692,-10.362774
59.645020,0.660225,0.394010,-9.959337
59.679377,0.812412,0.737740,-9.734723
59.711724,0.670400,0.496366,-10.025329
59.745046,0.376352,0.597674,-10.089676
59.779328,0.824383,0.406879,-9.763005
59.812105,0.765873,0.747766,-9.994203
59.846061,0.223866,0.724122,-10.057652
59.878794,0.087242,0.684616,-9.781411
59.911786,0.284471,0.532430,-9.669778
59.945495,0.811663,0.786523,-9.824209
59.979135,0.387875,0.713498,-9.746544
60.012000,0.033520,0.786523,-9.607676
60.045429,0.713946,0.725619,-9.661697
60.083104,0.312155,0.809269,-10.260269
60.111650,-0.377400,0.804929,-9.725894
60.145345,0.041900,0.898606,-9.939883
60.178853,0.860896,0.826628,-9.760162
60.212337,-0.047586,0.666809,-9.660051
60.245455,0.121061,0.661272,-9.739810
60.278470,0.058660,0.671747,-9.450700
60.312534,-0.063748,1.042862,-9.179248
60.345283,-0.408076,0.461798,-9.195709
60.378523,-0.412117,0.509834,-9.636557
60.412415,0.351960,1.023857,-10.094614
60.445694,0.247210,0.959211,-9.678906
60.479039,0.150690,0.659476,-9.794580
60.512245,-0.257536,0.540211,-9.642243
60.545419,0.324276,0.751507,-9.219801
60.578984,0.379046,0.606054,-9.542132
60.611955,-0.085895,0.476164,-9.362710
60.644826,-0.142310,0.380392,-9.350739
60.678086,0.601265,0.505793,-9.679504
60.711491,-0.055966,0.367373,-9.768542
60.745050,0.014515,0.265317,-9.643590
60.778234,0.289110,0.287913,-9.637904
60.811511,0.232994,0.253495,-10.105837
60.844836,0.026188,0.059408,-9.651521
60.878684,0.291804,0.012570,-9.619348
60.912418,0.569391,0.070482,-9.707937
60.945825,0.321732,0.031874,-9.737566
60.978439,0.651695,0.160866,-10.004828
61.012357,0.290158,0.013318,-9.727390
61.047359,1.264483,0.115973,-9.420921
61.078526,1.186968,0.244367,-9.683994
61.112252,0.178823,0.186904,-10.030118
61.145963,0.565950,0.260528,-9.811340
61.178225,1.220937,0.386677,-9.745198
61.211786,0.496665,0.440698,-10.148036
61.247121,0.320685,0.388922,-9.912947
61.279012,0.442793,0.461648,-9.778418
61.312524,1.026251,0.460451,-9.892147
61.345651,0.681923,0.392513,-10.060795
61.379135,0.744174,0.460900,-9.884814
61.411010,0.501304,0.302279,-9.988966
61.445835,0.615781,0.388024,-9.758516
61.477548,0.587648,0.428877,-9.868952
61.511954,0.754350,0.293001,-9.891997
61.545939,0.580615,0.105947,-9.756570
61.578861,0.580764,0.325473,-9.767045
61.610985,0.602612,0.176579,-10.005127
61.646163,0.495468,0.202916,-9.657058
61.678753,0.213391,0.097866,-9.610369
61.712366,0.526294,0.231947,-9.655861
61.745598,-0.035615,0.186904,-9.698060
61.778863,0.232395,0.171640,-9.999740
61.812746,0.279234,0.257685,-9.330387
61.845474,0.022297,0.189598,-9.592562
61.878605,0.186605,0.356001,-9.397876
61.912387,0.245564,0.353606,-9.489607
61.945546,-0.047437,0.065394,-9.270530
61.979039,-0.296443,0.042349,-9.711977
62.012251,0.048484,0.272051,-9.810592
62.046444,-0.362435,0.351362,-9.407753
62.078614,-0.140365,0.370666,-9.338019
62.112683,0.195134,0.028731,-9.952603
62.144110,0.109389,0.091133,-10.161654
62.178700,-0.173436,0.202018,-10.030567
62.212508,0.230450,0.279683,-10.052864
62.248433,-0.005088,0.218778,-10.246801
62.279547,0.187652,0.228355,-10.146091
62.312403,0.318141,0.307516,-10.857793
62.345265,0.473321,0.027385,-9.670227
62.379173,0.390418,0.104151,-9.509211
62.412726,-0.042798,0.195583,-10.035206
62.445452,0.572085,0.195434,-9.429451
62.479078,0.307217,0.146052,-9.566225
62.512362,0.484694,0.211296,-10.226150
62.545492,0.271752,0.193788,-10.045830
62.578807,0.851917,0.272201,-9.999441
62.613083,0.444440,0.160567,-10.080996
62.645741,0.234490,0.223267,-9.826454
62.677618,0.884988,0.200522,-10.072018
62.712598,0.764526,0.336397,-9.717663
62.744091,0.632690,0.191094,-9.861171
62.778223,0.898307,0.088888,-10.065882
62.811561,0.650049,0.067190,-10.019194
62.844926,0.621467,0.171640,-9.859974
62.878346,0.517615,0.208902,-9.894691
62.911701,0.672046,0.062401,-9.933000
62.944988,0.439501,0.054919,-9.858178
62.978294,0.510582,0.211894,-9.953052
63.011779,0.387725,0.234341,-9.644039
63.046068,0.313951,0.171341,-9.740259
63.077327,0.550387,0.133631,-9.998543
63.111948,0.343431,0.192890,-9.803109
63.145479,0.309911,0.221322,-9.767494
63.179109,0.491876,0.267412,-9.898133
63.212594,0.113878,0.175232,-9.628326
63.245240,0.241524,0.180320,-9.538391
63.278688,0.530933,0.213989,-9.919232
63.312988,-0.026487,0.238531,-9.786499
63.346909,0.432917,0.240327,-10.105837
63.378515,0.172538,0.236735,-9.720656
63.412744,0.161614,0.184360,-9.376178
63.444181,0.021100,0.171341,-9.554253
63.478514,0.240626,0.179272,-10.238570
63.511990,0.214289,0.149493,-9.635659
63.545142,0.546047,0.138569,-9.838874
63.578372,0.180170,0.141562,-9.286991
63.612117,0.409573,0.182415,-9.948413
63.645325,0.538116,0.109539,-9.476738
63.678676,0.011672,0.171940,-9.804157
63.712008,0.347621,0.158173,-9.994054
63.745349,0.321882,0.088140,-9.167277
63.778726,0.625956,0.101907,-9.835582
63.812302,0.223567,0.071679,-9.218305
63.845521,0.269507,0.130040,-10.095212
63.878613,0.118368,0.104151,-9.840819
63.911958,0.527791,0.018705,-10.230190
63.945471,0.206807,0.064047,-9.376328
63.979193,0.361537,0.137223,-10.068726
64.012195,0.234939,0.098315,-9.739511
64.046440,0.522404,0.104600,-9.800566
64.079447,0.348219,0.074522,-9.711678
64.113044,0.442045,-0.010325,-9.801613
64.145503,0.375903,0.047437,-9.675314
64.179153,0.230001,0.070482,-9.683545
64.210811,0.338792,0.052824,-10.105837
64.245407,0.300184,0.027385,-9.656160
64.279062,0.517615,0.075420,-10.146690
64.313011,0.341336,-0.000898,-9.706739
64.345371,0.383984,0.062102,-10.195623
64.379303,0.150242,0.033819,-9.968615
64.411052,0.117170,0.143657,-10.236326
64.444763,0.386079,0.069135,-9.724397
64.478157,0.331459,0.054919,-9.974900
64.511588,0.167750,0.081855,-9.587624
64.545168,0.580615,0.129292,-10.019643
64.578509,0.674890,0.157424,-9.555151
64.612060,0.501154,0.023195,-9.746844
64.645249,0.357497,-0.016760,-9.847853
64.678672,0.599021,0.141263,-9.857131
64.712449,0.872568,-0.040703,-9.242846
64.746500,0.644363,-0.067788,-9.500232
64.778766,0.499957,-0.244517,-9.814931
64.812425,0.195284,-0.069584,-9.790091
64.845749,0.539014,-0.300034,-9.719609
64.878850,-0.021698,-0.320236,-9.955596
64.910902,0.321732,-0.317842,-10.086384
64.944441,0.529437,-0.337744,-9.735172
64.978241,0.694942,-0.380243,-9.846955
65.010531,0.294797,-0.240327,-9.994802
65.044960,0.666210,-0.265616,-10.168238
65.078670,0.652892,-0.254543,-9.752081
65.111515,0.549938,-0.326072,-9.874938
65.145262,0.525396,-0.290607,-9.887957
65.178661,0.434713,-0.293151,-10.024132
65.211644,0.258882,-0.322331,-9.891099
65.244949,0.347022,-0.272350,-9.793083
65.278221,0.144256,-0.270554,-9.713024
65.311511,0.012869,-0.155928,-9.976845
65.344946,0.104750,-0.173287,-9.656609
65.377250,0.140215,-0.212493,-9.853689
65.410742,-0.088439,-0.136025,-9.766746
65.445232,-0.192740,-0.173287,-9.892297
65.477903,0.334602,-0.173137,-9.626381
65.511476,-0.303027,-0.254992,-9.863864
65.544862,0.381141,-0.187353,-10.014106
65.577576,-0.149344,-0.141862,-9.909805
65.611532,0.253046,-0.060156,-9.374532
65.644856,0.479755,-0.082304,-10.159858
65.678320,0.232395,-0.262623,-10.220314
65.711609,0.130189,-0.056864,-10.190385
65.745000,0.558318,-0.140066,-9.874190
65.778211,0.055368,-0.275193,-9.547220
65.811519,0.140515,-0.254094,-9.946916
65.845048,-0.029779,-0.156377,-9.669778
65.877896,0.361537,-0.275942,-10.045082
65.910652,0.208602,-0.152636,-9.498885
65.945045,0.063598,-0.141413,-10.119754
65.977609,0.185857,-0.018406,-9.782159
66.011636,0.421993,-0.121211,-10.004678
66.045233,0.497413,-0.190346,-9.608274
66.078850,0.190047,-0.183163,-9.913097
66.111718,0.573282,-0.130489,-9.914593
66.145105,0.451622,-0.058660,-9.460726
66.178360,0.295694,-0.117769,-10.147588
66.211621,0.314998,-0.122707,-9.818672
66.245084,0.347321,-0.108042,-10.216573
66.279086,0.399247,-0.066741,-9.544227
66.311554,0.421395,-0.123455,-9.799967
66.345522,0.035316,-0.127645,-9.721554
66.377276,0.326371,-0.138420,-10.171231
66.411621,0.444290,-0.209500,-9.518788
66.445094,0.427680,-0.211595,-9.779765
66.477639,0.161315,-0.066591,-9.654215
66.512098,0.250652,-0.111634,-10.014854
66.545153,0.458506,-0.204562,-9.912798
66.577870,0.299136,-0.230450,-10.008868
66.611538,0.237483,-0.161315,-9.744150
66.643946,0.188101,-0.146500,-9.944522
66.678572,0.212044,-0.216683,-9.627878
66.711594,0.170294,-0.177626,-9.661547
66.744961,0.262773,-0.171790,-9.909655
66.778285,0.311706,-0.122408,-9.521032
66.812030,0.397302,-0.205011,-9.647032
66.845051,0.233293,-0.219526,-9.741756
66.878261,0.121360,-0.227308,-9.839473
66.911640,0.376951,-0.156377,-9.757019
66.945268,0.394309,-0.205460,-9.879876
66.978174,0.165355,-0.161016,-9.509211
67.011526,0.067938,-0.143208,-9.857579
67.043978,0.454017,-0.147997,-9.864463
67.078133,0.258733,-0.216982,-9.977294
67.111524,0.386827,-0.142759,-9.667832
67.144891,0.006884,-0.151289,-9.861470
67.178220,0.128693,-0.122258,-9.811639
67.211503,0.331459,-0.156975,-9.975947
67.244919,0.501154,-0.149643,-9.776473
67.278224,0.110436,-0.184510,-9.868354
67.311528,0.484245,-0.272799,-10.197119
67.345043,0.398499,-0.164009,-9.421370
67.378106,0.186156,0.008829,-9.886012
67.411446,0.120612,0.042349,-9.500681
67.444883,0.146500,-0.094275,-9.912798
67.478134,0.089935,-0.072278,-9.930755
67.511972,0.193189,0.011074,-9.809245
67.544883,-0.068536,0.007632,-9.801014
67.578217,0.157574,-0.055966,-9.928061
67.611708,0.254543,0.054470,-9.658405
67.644827,0.270554,0.036064,-9.942427
67.678477,0.018406,0.019005,-9.748789
67.711275,0.367074,0.059558,-9.801314
67.744930,0.363483,0.075420,-9.667084
67.778280,0.123007,-0.019603,-9.705393
67.811742,0.354055,0.050430,-9.641046
67.843879,0.109239,-0.049233,-10.113020
67.878242,0.599919,-0.070482,-9.596004
67.911591,0.402540,-0.088738,-9.714371
67.944023,0.599919,-0.104750,-10.076058
67.978350,0.571187,-0.063299,-9.715568
68.012197,0.724571,-0.165954,-9.765549
68.044951,0.336547,-0.266664,-9.807748
68.078569,0.420646,-0.282526,-10.051217
68.112610,0.807473,-0.220424,-9.694020
68.145075,0.540361,-0.328317,-10.014106
68.179341,0.236436,-0.277887,-9.755523
68.211118,0.814955,-0.343730,-9.567571
68.244908,0.656933,-0.272350,-10.009916
68.278579,0.487237,-0.216234,-9.724996
68.312978,0.496515,-0.332357,-9.985524
68.345523,0.737291,-0.343131,-9.915042
68.378060,0.671598,-0.352708,-9.637006
68.411080,0.421095,-0.292402,-9.963078
68.444921,0.221322,-0.291654,-9.705842
68.477549,0.135876,-0.299436,-9.852342
68.511396,0.660973,-0.326072,-10.048374
68.544883,0.346573,-0.292702,-9.724098
68.578245,0.237783,-0.157724,-10.099103
68.611557,0.673842,-0.310359,-9.846506
68.645024,0.439501,-0.251251,-10.184100
68.677982,0.490530,-0.314998,-9.616056
68.712107,0.086494,-0.184959,-9.945719
68.745152,0.338642,-0.147099,-9.672471
68.778284,0.334901,-0.343580,-9.827501
68.811652,0.352110,-0.205909,-9.982232
68.853483,0.459853,-0.133781,-9.751483
68.878767,0.847727,0.009128,-10.237523
68.912164,0.189897,-0.363333,-9.146775
68.945748,0.600368,-0.157724,-9.611566
68.977723,0.413763,0.028731,-9.765250
69.012850,0.359143,0.011971,-9.804007
69.045555,0.208453,-0.071529,-10.084588
69.079078,0.730707,-0.246163,-9.620844
69.112727,0.126598,0.089636,-10.327009
69.145579,0.189598,-0.048185,-9.792186
69.179006,0.392065,-0.029480,-9.776174
69.212223,0.300483,-0.060007,-10.077106
69.244071,0.422143,-0.056565,-9.830344
69.278130,0.409124,-0.193638,-9.942427
69.312382,0.626106,-0.103104,-9.661248
69.345605,0.188251,-0.089636,-9.840520
69.379262,0.689854,-0.085895,-9.929258
69.412960,0.581812,-0.128394,-9.697312
69.445790,0.643764,-0.221322,-9.545275
69.479636,0.621318,-0.099213,-9.757618
69.512587,0.335350,-0.207106,-9.668431
69.546883,0.380392,-0.169845,-9.807299
69.578127,0.729060,-0.263222,-9.843064
69.612435,0.638078,-0.227757,-10.082642
69.646174,0.719034,-0.167450,-9.698210
69.677639,0.326371,-0.077964,-9.815530
69.712400,0.659177,-0.099513,-9.972356
69.746400,0.414212,-0.173436,-9.977294
69.777526,0.710355,-0.085446,-9.695965
69.810581,0.460751,0.006435,-9.896636
69.846880,0.609795,0.024691,-9.833637
69.877438,0.611890,0.014066,-9.689231
69.912440,0.461798,0.092928,-9.946318
69.946155,0.650348,0.090085,-9.670227
69.989382,0.493074,0.167002,-9.806102
70.012121,0.537069,0.134379,-9.856233
70.045834,0.715293,0.202766,-9.564878
70.079358,0.588695,0.294198,-9.757468
70.112438,0.601116,0.279383,-9.870000
70.144950,0.499807,0.316196,-9.557545
70.180929,0.649151,0.317692,-9.675913
70.210834,0.556223,0.293450,-9.776323
70.245064,0.387725,0.245564,-9.885563
70.277990,0.748963,0.273098,-9.640747
70.311700,0.312305,0.295246,-9.876434
70.343928,0.476014,0.313203,-9.613961
70.377829,0.462846,0.250502,-10.024731
70.411573,0.592885,0.231647,-9.740858
70.444821,0.257984,0.308713,-9.760162
70.478394,0.450725,0.251251,-9.985375
70.511101,0.587947,0.264120,-9.695815
70.544913,0.264269,0.296143,-9.864014
70.578426,0.490230,0.167600,-9.568769
70.610470,0.328915,0.181816,-9.919382
70.644920,0.564004,0.249006,-9.613661
70.678307,0.405233,0.308713,-9.604533
70.710518,0.317393,0.282975,-9.632217
70.744865,0.343730,0.357497,-9.945570
70.778242,0.583757,0.259331,-9.632068
70.815418,0.386827,0.387725,-9.664091
70.844986,0.495617,0.654838,-9.529562
70.877870,0.679828,1.221386,-10.142949
70.911837,0.818697,1.256552,-9.915192
70.944189,0.483197,1.114092,-9.683844
70.978248,0.506691,1.089850,-9.480180
71.011547,0.591987,1.339454,-9.379021
71.047525,0.689854,0.871371,-9.219801
71.078166,0.670849,0.893219,-8.947002
71.111605,0.724122,1.180533,-8.491489
71.143914,0.900701,-0.022147,-10.175271
71.178253,1.341549,-0.266065,-10.716081
71.211668,1.363846,0.080957,-10.899693
71.244184,1.590256,0.293899,-10.230190
71.278246,1.682735,0.434413,-9.958738
71.311199,1.733015,0.540510,-9.972655
71.344786,1.359057,0.261127,-9.883917
71.378248,1.134443,-0.088888,-9.831991
71.411597,1.204177,-0.166553,-10.071569
71.445317,1.155992,-0.118816,-9.782608
71.478261,1.173949,-0.080658,-9.725744
71.511570,1.163624,0.060456,-9.617552
71.544935,1.248920,0.420796,-9.480479
71.578250,1.197293,0.446235,-9.513700
71.611579,1.093142,0.391167,-9.596303
71.645003,1.018021,0.388772,-9.576999
71.677212,1.036876,0.373060,-9.709732
71.711648,0.970135,0.359293,-9.666037
71.744791,0.910877,0.323528,-9.607825
71.779978,0.583308,0.307516,-9.640896
71.811645,0.256039,0.217431,-9.660200
71.845041,-0.016012,0.142011,-9.565776
71.878237,0.128543,-0.020800,-9.672770
71.911289,0.269357,-0.106396,-9.710331
71.944471,0.305721,-0.101907,-9.694768
71.978591,0.289709,-0.265167,-9.870299
72.011890,0.215935,-0.305571,-10.015902
72.045237,0.061653,-0.207255,-10.020840
72.078131,0.071080,-0.118517,-10.040593
72.118447,-0.049532,0.106845,-9.875686
72.145059,-0.066142,0.326970,-9.782159
72.178248,0.205160,0.554876,-9.728438
72.211597,0.360191,0.435910,-9.434090
72.245414,0.370217,0.236137,-9.326347
72.278424,-0.001945,-0.105798,-9.386354
72.310938,-0.186754,-0.248707,-9.573557
72.344821,-0.162662,-0.263970,-9.688483
72.378818,0.072577,0.033819,-9.801613
72.411587,0.281778,0.296592,-9.840670
72.444316,0.455064,0.445337,-9.902772
72.478518,0.611441,0.569840,-9.924470
72.510902,1.076681,0.596177,-9.949610
72.545018,1.151502,0.355103,-9.974451
72.577914,0.720830,0.113579,-10.005726
72.610525,0.532430,0.027534,-9.977593
72.645018,0.322181,-0.097866,-9.998543
72.677408,0.289709,0.102056,-9.776323
72.711684,0.490829,0.578220,-9.382762
72.745018,0.739087,0.796699,-9.346998
72.777703,0.668754,0.841442,-9.319314
72.811663,0.733999,0.720381,-9.584182
72.845028,0.712749,0.571037,-9.654364
72.877766,0.732652,0.281778,-9.813734
72.912307,0.623712,0.071230,-10.172877
72.944913,0.594232,0.065843,-10.102695
72.978307,0.937962,0.250951,-9.774827
73.011671,0.974625,0.318440,-9.662595
73.043900,0.421993,0.516717,-9.460128
73.077407,0.489482,0.619971,-9.341311
73.111920,0.924494,0.489931,-9.488560
73.144752,0.633738,-0.125102,-9.800416
73.178275,0.284920,-0.126299,-9.810592
73.211670,-0.094125,-0.267262,-10.153723
73.251353,-0.088289,-0.127346,-9.811938
73.278294,0.342982,0.352409,-9.639250
73.311618,0.429625,0.729210,-9.523427
73.344997,0.304224,0.704369,-9.358071
73.378335,0.095622,0.494869,-9.439327
73.411475,0.080658,0.125102,-9.757768
73.444995,0.339241,-0.015563,-10.042688
73.478259,0.446684,-0.268908,-10.429814
73.511102,0.368870,-0.325174,-10.474258
73.544018,0.288063,-0.122109,-10.183951
73.578333,0.235239,0.206657,-9.855335
73.611117,0.203814,0.235089,-9.714222
73.645559,0.275343,0.215935,-9.635360
73.678209,0.354953,-0.084997,-9.784703
73.711082,0.345526,-0.280730,-9.903670
73.745339,0.287165,-0.174484,-9.929258
73.778209,0.237783,0.021998,-9.908009
73.811516,0.514472,0.108341,-9.786349
73.844137,0.604109,0.272201,-9.536146
73.877894,1.451986,0.205909,-9.719010
73.911703,1.707576,0.153085,-9.788295
73.943874,1.419363,0.206956,-9.592412
73.978286,0.805528,0.002694,-9.757468
74.011595,0.420497,0.090384,-9.677559
74.044366,0.754500,0.295694,-9.445762
74.078216,0.938860,0.361986,-9.436484
74.112147,0.670101,0.529586,-9.174609
74.144849,0.401043,0.611142,-9.112358
74.178187,0.301830,0.631194,-9.327245
74.211925,0.247809,0.562508,-9.429601
74.244326,0.439052,0.118667,-9.807000
74.278181,0.484245,0.007482,-9.845608
74.311603,0.521356,-0.094874,-9.749687
74.356001,0.547244,-0.227158,-9.828998
74.378154,0.136774,-0.344179,-9.904118
74.410677,-0.115973,-0.414511,-10.131426
74.444263,-0.113579,-0.382038,-10.172129
74.478289,0.048634,-0.202766,-10.048973
74.511562,-0.005986,0.719334,-9.962180
74.544952,0.128394,0.922549,-9.996149
74.578260,0.287464,0.815554,-10.015752
74.611549,0.461648,0.754649,-10.078901
74.644967,0.051627,0.748664,-10.165694
74.678181,0.268609,0.920005,-10.194875
74.710752,0.774402,1.220937,-10.062740
74.744960,0.966843,1.024456,-10.023683
74.777961,0.913570,0.769763,-9.987769
74.811610,0.187054,0.093676,-9.880624
74.844914,-0.296742,-0.016610,-9.694319
74.877669,-0.219377,0.191094,-9.487213
74.911625,-0.104002,0.297490,-9.431845
74.944355,0.031874,0.557270,-9.231174
74.978186,0.129591,0.859848,-9.302703
75.011608,0.327868,1.115588,-9.273972
75.044372,0.512976,1.195198,-9.237758
75.077825,0.156826,1.603424,-9.173711
75.111579,0.242721,1.546709,-9.304499
75.144225,0.684616,1.138932,-9.795178
75.178188,-0.084099,0.525845,-9.974451
75.211607,-0.326222,0.368571,-10.036104
75.244034,-0.044444,0.230450,-9.994652
75.278195,0.007931,0.286117,-9.784105
75.311666,0.122707,0.240476,-9.625633
75.344278,-0.157724,0.190944,-9.445164
75.377493,-0.195284,0.166253,-9.180445
75.411274,-0.042499,0.094574,-9.216958
75.447998,-0.167151,-0.027235,-9.313328
75.478215,-0.116422,0.009727,-9.228630
75.511563,0.145902,-0.116721,-9.600942
75.544945,0.363483,-0.342533,-9.591814
75.578222,0.944546,-0.476463,-10.789406
75.611608,0.851768,0.613835,-10.249195
75.645734,0.859848,0.879152,-9.771684
75.678273,1.031638,-0.695091,-10.698872
75.711622,1.486553,-0.883941,-9.595405
75.744951,1.268374,-1.406045,-9.535398
75.777934,1.342597,-1.252511,-9.020178
75.811612,1.063812,-0.641220,-9.620395
75.844952,1.134892,-0.347621,-9.634163
75.877362,0.809718,0.506541,-9.667084
75.911619,0.741182,0.833362,-10.074113
75.944850,0.717239,0.577771,-9.914145
75.978284,0.543952,0.495617,-10.096410
76.011612,0.311108,0.029330,-9.809694
76.044240,0.395806,-0.099363,-9.548118
76.078624,0.810466,-0.231797,-9.736967
76.111230,0.878554,-0.201868,-9.766896
76.144944,0.985997,-0.060007,-10.253684
76.178286,0.765573,-0.257386,-9.947964
76.211176,-0.029629,0.141113,-9.248982
76.244853,-0.262474,0.287314,-8.992045
76.278275,-0.382487,0.521655,-8.951192
76.310816,-0.174334,0.571935,-9.162488
76.344949,0.039356,0.671298,-9.457434
76.378069,0.482150,0.544850,-10.119155
76.411550,0.682970,0.512976,-10.417394
76.444365,0.740882,0.316196,-10.234231
76.477915,0.599021,0.177776,-9.979090
76.511559,0.704220,0.162961,-9.859525
76.543850,0.786523,0.287913,-9.768392
76.578182,1.090448,0.381889,-9.777670
76.611522,1.152101,0.501753,-9.836779
76.644863,1.397815,0.477810,-9.496790
76.678218,1.511394,0.527791,-9.425710
76.711545,1.803198,0.860297,-9.618749
76.744947,1.783145,1.090448,-9.806851
76.778228,1.508551,0.833362,-9.569816
76.811609,1.194151,0.026188,-9.055493
76.844856,1.023109,-0.350164,-9.068063
76.877859,1.190410,-0.273098,-9.229229
76.911620,1.274060,0.096220,-9.713623
76.944398,1.605818,0.498161,-10.108531
76.977446,1.560028,0.725170,-10.297081
77.011607,1.515434,0.779041,-10.182305
77.044286,1.323293,0.663218,-9.978940
77.078274,1.093291,0.658579,-9.829297
77.111536,1.082517,0.661272,-9.766148
77.144865,1.019068,0.970584,-9.777371
77.177338,1.084911,1.029992,-9.697761
77.211485,1.217345,0.994527,-9.577298
77.244936,1.198640,0.924494,-9.440225
77.278102,1.297255,0.764825,-9.233568
77.311116,1.268224,0.754350,-9.375430
77.344943,1.210462,0.656633,-9.254069
77.378202,1.226025,0.584805,-9.369444
77.411530,1.147312,0.627154,-9.321558
77.445264,0.864637,0.223267,-8.999078
77.477603,0.861644,-0.004789,-9.005961
77.511619,0.976570,-0.077066,-9.093802
77.544107,1.047650,-0.099213,-9.085422
77.577532,1.342746,-0.247061,-9.386803
77.611606,1.683334,-0.337445,-9.553355
77.650604,1.710569,-0.304374,-9.647481
77.678223,1.705181,-0.338343,-9.653766
77.711659,1.738252,-0.116871,-9.707937
77.744916,1.702937,-0.043247,-9.818223
77.777670,1.822950,0.053273,-9.850097
77.811609,1.608662,0.263521,-9.849349
77.844891,1.656098,0.496066,-9.903370
77.878291,1.562123,0.965047,-10.210288
77.911556,1.527555,1.185621,-10.160307
77.944942,1.396618,1.425948,-10.191882
77.978281,1.395869,1.220488,-9.924919
78.011588,1.386292,0.997071,-9.798022
78.043947,1.535187,0.860447,-9.936292
78.078339,1.680191,0.750310,-10.186495
78.111556,1.640386,0.513126,-9.997047
78.144923,1.390333,0.154731,-9.599894
78.178284,0.915964,0.014964,-9.059234
78.211439,0.703621,-0.079460,-8.728972
78.244812,0.630146,-0.107743,-8.679141
78.278246,0.584356,-0.070332,-8.545510
78.311472,0.690453,0.225961,-8.592199
78.344920,0.760037,0.370815,-8.940717
78.378205,1.022810,0.478857,-9.474942
78.411613,1.097032,0.525696,-9.842017
78.444908,0.892471,0.210997,-9.793233
78.478255,1.287378,0.184659,-10.161804
78.511591,1.176642,0.177028,-10.502241
78.544802,1.327782,0.016161,-10.503588
78.578106,1.280345,0.144256,-10.445676
78.611468,1.394223,0.209201,-10.729100
78.644783,1.181431,-0.023494,-10.329703
78.678122,1.128308,-0.020501,-10.339729
78.711509,0.959660,-0.097567,-10.131127
78.744802,0.496366,-0.101907,-9.884066
78.778120,0.520757,-0.056266,-9.729784
78.810625,0.482748,0.265317,-10.039994
78.844814,0.709607,0.351212,-10.023384
78.878184,0.499508,0.671149,-10.180359
78.911551,0.302428,0.720830,-9.975199
78.944851,0.113130,0.637329,-9.981933
78.978273,0.055817,0.538266,-10.016949
79.011045,-0.082603,0.609795,-10.186345
79.044817,-0.365129,0.543354,-10.337784
79.078103,-0.752704,0.709008,-10.138759
79.110448,-0.919706,0.596028,-10.276580
79.144335,-1.003206,0.768716,-10.513764
79.178109,-0.425435,0.705267,-9.763454
79.211419,0.080059,0.159968,-9.335026
79.244778,0.272649,-0.268759,-9.386653
79.278101,0.334602,-0.370516,-9.400420
79.311442,0.246911,-0.764825,-9.304499
79.344739,-0.007183,-0.777994,-9.363608
79.378168,-0.316794,-0.824832,-9.099937
79.411504,-0.331010,-0.424238,-9.149768
79.444825,-0.375005,-0.347471,-9.247635
79.478177,0.037560,0.218928,-9.436484
79.511455,0.185857,0.488884,-9.838126
79.544805,0.104301,0.742977,-10.342572
79.578178,0.015862,0.521356,-10.282715
79.611568,0.048484,0.168797,-10.137262
79.644845,-0.462247,2.215314,-8.947750
79.678178,0.452820,0.742079,-9.932850
79.711518,1.448544,-0.452969,-9.672322
79.744807,0.820193,0.237932,-10.168986
79.778190,0.161315,0.139617,-10.384472
79.811325,0.587947,-0.263970,-9.359568
79.844814,0.550686,-0.341186,-9.281753
79.878145,0.440250,-0.233593,-9.109514
79.911525,0.403138,0.235089,-9.482125
79.944909,0.867929,0.270554,-9.400121
79.978194,0.682372,0.398200,-10.565241
80.011518,0.816153,0.884091,-10.463334
80.044857,0.261726,0.914468,-9.706290
80.078180,0.313652,1.091645,-10.400185
80.111603,0.832314,0.923147,-9.731580
80.144879,-0.128244,0.484095,-9.279658
80.177470,-0.048185,0.397452,-9.156203
80.211613,0.646308,0.411368,-9.722452
80.244817,0.581213,0.451473,-9.646134
80.278236,0.843537,0.215785,-9.938836
80.311621,0.796549,-0.062102,-9.702250
80.344825,0.603660,-0.308264,-9.791737
80.378292,0.127645,-0.275792,-9.067315
80.411527,0.278635,-0.251400,-9.485567
80.444851,0.531831,-0.320386,-9.494246
80.477866,0.695391,-0.317692,-10.096709
80.511556,1.007396,-0.329813,-10.526334
80.544860,0.985997,-0.294198,-10.451063
80.578201,0.754799,-0.205460,-10.274335
80.611591,0.543354,-0.325773,-9.751183
80.644987,0.092030,-0.092180,-9.574156
80.678217,0.394160,-0.073624,-9.952303
80.711541,0.298089,0.153085,-9.877482
80.744855,0.119265,-0.102356,-9.426159
80.777386,0.385480,-0.046090,-10.010215
80.811621,0.501454,-0.246312,-10.080996
80.844612,0.359742,-0.186605,-9.602289
80.878274,0.212343,-0.061354,-9.318416
80.911964,0.328017,-0.165655,-9.443667
80.957414,0.494271,0.001048,-9.771684
80.978230,0.581363,0.021998,-9.975797
81.011547,0.689255,-0.074223,-10.312793
81.044913,0.734448,-0.006734,-9.786798
81.078255,0.573581,-0.255590,-9.807299
81.111521,0.648104,-0.269357,-9.631170
81.144946,0.726517,-0.309911,-9.780513
81.178221,0.802236,-0.324725,-9.779316
81.211552,0.804630,-0.341336,-9.848601
81.244968,0.754200,-0.346124,-9.856382
81.278193,0.656184,-0.343281,-9.559940
81.310678,0.699730,-0.356449,-9.620545
81.344564,0.647954,-0.337295,-9.781112
81.378183,0.693146,-0.333853,-9.849648
81.411592,0.771559,-0.330262,-9.730233
81.444888,0.812860,-0.334003,-9.670227
81.478186,0.859399,-0.284920,-9.860572
81.511584,0.881547,-0.158921,-9.805354
81.545351,0.830369,-0.170743,-9.754775
81.578252,0.889178,-0.035914,-9.837527
81.611589,0.912972,-0.077365,-9.811789
81.644910,0.937962,-0.134529,-9.872693
81.678173,1.035230,-0.256039,-9.952154
81.711446,0.978964,-0.271452,-10.109578
81.744793,0.824832,-0.403587,-9.431546
81.777957,0.673543,-0.475416,-9.369893
81.810653,0.587498,-0.362884,-9.675314
81.844247,0.751357,-0.399098,-9.959486
81.877728,0.754200,-0.412416,-9.725295
81.911449,0.783231,-0.356599,-9.662894
81.944572,0.788469,-0.348369,-9.613961
81.978178,0.738338,-0.361238,-9.686987
82.011514,0.692996,-0.343281,-9.739960
82.044925,0.731455,-0.285519,-9.974301
82.078217,0.845183,-0.173436,-9.909655
82.111306,0.829920,-0.201419,-9.885413
82.144926,0.748364,-0.191244,-9.846955
82.178192,0.752854,-0.186305,-9.789043
82.211118,0.701975,-0.129441,-9.728138
82.245103,0.763329,-0.154132,-9.906662
82.278179,0.755098,-0.202916,-9.893344
82.311121,0.779939,-0.256338,-9.834235
82.344634,0.753602,-0.251101,-9.688633
82.378105,0.761683,-0.250053,-9.643141
82.411588,0.744174,-0.218928,-9.672621
82.444932,0.719034,-0.233892,-9.631319
82.478174,0.737291,-0.191693,-9.764053
82.511603,0.764526,-0.185108,-9.643291
82.544573,0.751058,-0.215037,-9.622341
82.577633,0.769913,-0.219377,-9.726792
82.611570,0.715144,-0.194087,-9.730533
82.644563,0.724571,-0.164009,-9.752530
82.677919,0.686562,-0.145004,-9.779466
82.711615,0.724272,-0.146949,-9.807898
82.744383,0.725918,-0.189149,-9.755074
82.778182,0.668904,-0.162363,-9.764950
82.811339,0.652294,-0.101159,-9.834834
82.844505,0.690602,-0.091881,-9.823162
82.878281,0.679678,-0.142460,-9.756570
82.911523,0.680277,-0.150242,-9.827052
82.944437,0.706464,-0.119565,-9.783955
82.978264,0.751058,-0.180918,-9.718860
83.010944,0.790414,-0.191992,-9.679055
83.044872,0.738787,-0.169695,-9.707637
83.077640,0.767668,-0.191842,-9.825855
83.110588,0.715443,-0.212792,-9.693272
83.144606,0.708559,-0.195284,-9.650474
83.178202,0.723823,-0.173436,-9.688633
83.211635,0.773504,-0.197978,-9.711229
83.244909,0.769015,-0.229253,-9.705393
83.278260,0.761084,-0.211146,-9.744749
83.311648,0.796549,-0.134978,-9.797124
83.344815,0.774402,-0.144256,-9.769589
83.378184,0.778742,-0.139617,-9.676512
83.411582,0.814955,-0.128693,-9.757169
83.444102,0.895314,-0.130189,-9.723350
83.478287,0.902048,-0.149793,-9.737416
83.511527,0.881397,-0.165056,-9.744449
83.544883,0.870323,-0.137223,-9.730084
83.578251,0.858951,-0.118068,-9.730533
83.611113,0.850122,-0.125999,-9.753428
83.643947,0.859848,-0.116273,-9.727989
83.678157,0.861195,-0.131686,-9.728737
83.711214,0.847578,-0.164308,-9.767644
83.744893,0.753003,-0.128693,-9.746095
83.778209,0.735645,-0.131536,-9.704195
83.810758,0.758839,-0.182564,-9.762407
83.844916,0.784129,-0.163709,-9.744300
83.877247,0.780987,-0.154581,-9.722452
83.911519,0.793557,-0.146201,-9.783656
83.944934,0.774851,-0.171192,-9.723948
83.977441,0.767668,-0.169246,-9.700604
84.010926,0.762580,-0.133033,-9.753578
84.044759,0.734448,-0.148895,-9.804157
84.078216,0.735645,-0.190047,-9.738164
84.110676,0.747018,-0.152636,-9.777221
84.143818,0.763778,-0.180170,-9.801912
84.178131,0.736094,-0.143657,-9.730682
84.211478,0.746718,-0.156676,-9.705093
84.244837,0.787870,-0.172389,-9.686837
84.277581,0.738338,-0.159968,-9.647481
84.311911,0.740583,-0.134978,-9.779915
84.344892,0.726367,-0.139467,-9.816278
84.378253,0.713647,-0.148595,-9.763005
84.410534,0.710804,-0.134230,-9.707787
84.444946,0.725319,-0.141263,-9.773031
84.477609,0.716790,-0.106695,-9.653915
84.510978,0.756744,-0.140365,-9.735172
84.543938,0.808670,-0.190944,-9.831542
84.578271,0.839048,-0.173137,-9.780513
84.611605,0.787720,-0.110436,-9.650923
84.645004,0.694194,-0.111035,-9.744150
84.678201,0.710355,-0.143059,-9.833786
84.711587,0.684168,-0.149344,-9.792335
84.744944,0.679379,-0.127795,-9.672770
84.778187,0.759438,-0.137821,-9.798620
84.810639,0.746269,-0.152037,-9.749088
84.844934,0.725469,-0.145154,-9.773031
84.877894,0.733101,-0.166104,-9.764801
84.911525,0.761982,-0.161764,-9.771385
84.944950,0.778592,-0.150541,-9.741756
84.978224,0.770063,-0.132434,-9.729036
85.011524,0.795352,-0.180619,-9.678008
85.044610,0.794005,-0.148446,-9.698958
85.078245,0.837701,-0.143508,-9.708535
85.111603,0.832314,-0.134679,-9.677110
85.144556,0.871820,-0.110436,-9.654664
85.178174,0.853264,-0.132584,-9.614260
85.211523,0.833960,-0.113729,-9.648079
85.244898,0.799093,-0.130040,-9.718262
85.278257,0.814806,-0.125700,-9.727839
85.317588,0.797747,-0.123007,-9.701951
85.344893,0.797298,-0.117470,-9.736369
85.378185,0.789367,-0.141413,-9.782309
85.411597,0.801637,-0.160268,-9.764352
85.444933,0.797298,-0.144705,-9.742205
85.477702,0.803732,-0.116422,-9.792186
85.511587,0.842789,-0.078712,-9.796525
85.544927,0.871670,-0.084399,-9.803708
85.578248,0.829770,-0.059109,-9.802661
85.611482,0.929732,-0.101458,-9.759713
85.644822,0.909979,-0.058361,-9.708535
85.678156,0.897858,-0.078712,-9.728737
85.711522,0.885288,-0.090235,-9.673369
85.744798,0.830069,-0.060605,-9.706290
85.778254,0.817050,-0.088140,-9.731879
85.811469,0.729809,-0.078413,-9.663942
85.844850,0.732502,-0.101308,-9.609621
85.878170,0.731006,-0.120912,-9.673968
85.910965,0.751507,-0.112831,-9.666785
85.944822,0.788918,-0.132135,-9.737566
85.978198,0.802685,-0.134080,-9.778718
86.010634,0.823186,-0.110436,-9.753877
86.044800,0.789516,-0.123455,-9.789342
86.078181,0.815255,-0.106546,-9.758665
86.111462,0.815105,-0.046090,-9.725445
86.143880,0.823036,-0.033370,-9.696414
86.178185,0.878254,-0.073026,-9.772732
86.211480,0.887233,-0.103254,-9.751034
86.244634,0.896661,-0.132733,-9.765399
86.278151,0.846231,-0.159669,-9.758067
86.311498,0.847578,-0.132733,-9.758217
86.344922,0.794604,-0.140066,-9.780663
86.377185,0.770063,-0.137672,-9.734573
86.411008,0.731754,-0.140365,-9.648079
86.444896,0.740284,-0.121211,-9.650474
86.478202,0.742828,-0.096819,-9.672471
86.511586,0.737590,-0.088888,-9.624735
86.544887,0.804780,-0.135128,-9.661398
86.578288,0.824383,-0.137672,-9.667533
86.610718,0.870922,-0.143508,-9.729934
86.644951,0.795502,-0.155329,-9.755224
86.678276,0.819894,-0.122707,-9.769889
86.711554,0.846231,-0.086045,-9.779915
86.744922,0.776946,-0.095472,-9.817326
86.778248,0.750459,-0.112531,-9.775425
86.810637,0.753752,-0.125999,-9.783207
86.844922,0.769763,-0.104451,-9.740259
86.878249,0.772158,-0.098764,-9.748340
86.911585,0.765873,-0.092180,-9.748490
86.944944,0.759588,-0.097567,-9.742504
86.978228,0.735794,-0.091881,-9.684742
87.011616,0.796250,-0.080508,-9.694918
87.044964,0.815255,-0.097567,-9.753129
87.078262,0.787720,-0.098315,-9.657656
87.111525,0.748664,-0.099812,-9.623837
87.144884,0.754200,-0.116572,-9.668580
87.177871,0.772457,-0.114776,-9.681749
87.211597,0.789815,-0.084698,-9.700155
87.244953,0.814357,-0.073026,-9.708984
87.278278,0.853863,-0.126598,-9.787547
87.311596,0.835307,-0.108641,-9.792634
87.344895,0.829321,-0.100710,-9.731730
87.378123,0.809119,-0.080957,-9.772882
87.411082,0.822737,-0.077814,-9.791138
87.444858,0.818547,-0.064047,-9.710032
87.478179,0.807324,-0.076019,-9.711229
87.511482,0.741780,-0.065095,-9.742205
87.544440,0.723973,-0.081855,-9.704195
87.578133,0.715742,-0.091282,-9.673369
87.611173,0.718436,-0.063898,-9.642393
87.644802,0.769763,-0.042349,-9.740858
87.678103,0.813908,-0.089337,-9.777820
87.710451,0.836205,-0.104600,-9.694768
87.744955,0.832015,-0.105199,-9.689979
87.778254,0.845932,-0.058510,-9.740110
87.811585,0.797597,-0.104750,-9.672770
87.844751,0.755847,-0.073026,-9.745497
87.878110,0.743277,-0.062401,-9.784254
87.911427,0.803732,-0.026636,-9.784254
87.944801,0.821390,-0.033370,-9.731430
87.978139,0.856407,-0.034418,-9.770188
88.011445,0.873915,-0.011971,-9.705991
88.044808,0.871969,-0.021998,-9.702250
88.077870,0.867929,-0.067040,-9.751483
88.111442,0.855958,-0.055069,-9.697462
88.144781,0.800590,-0.051178,-9.711378
88.178104,0.864637,-0.073774,-9.717514
88.211462,0.898007,-0.076168,-9.684293
88.244498,0.924644,-0.100261,-9.646733
88.278184,0.911625,-0.101757,-9.673668
88.311488,0.868977,-0.122258,-9.672172
88.344804,0.862692,-0.074971,-9.716317
88.377414,0.821540,-0.075719,-9.711977
88.411528,0.804630,-0.022596,-9.673519
88.445443,0.797597,-0.015713,-9.673070
88.478238,0.817200,0.019304,-9.708385
88.511515,0.879901,-0.048484,-9.763604
88.545036,0.867031,-0.057762,-9.801613
88.577992,0.805977,-0.067489,-9.763005
88.610668,0.783381,-0.063748,-9.732927
88.644902,0.759438,-0.062251,-9.740259
88.679972,0.760485,-0.060007,-9.735172
88.711880,0.805977,-0.050130,-9.705692
88.745091,0.844585,-0.079311,-9.735172
88.778262,0.842939,-0.073175,-9.679205
88.811615,0.827077,-0.088289,-9.686089
88.845090,0.832464,-0.060605,-9.716915
88.878284,0.798644,-0.035016,-9.734573
88.911686,0.778293,-0.038608,-9.707188
88.944733,0.769913,-0.044145,-9.694319
88.978288,0.788169,-0.060156,-9.733974
89.011857,0.770512,-0.065095,-9.686837
89.044950,0.706015,-0.054320,-9.668281
89.078546,0.748065,-0.070033,-9.755972
89.111637,0.781585,-0.030677,-9.776922
89.144691,0.783680,-0.053871,-9.727390
89.177771,0.830369,-0.087541,-9.762407
89.211367,0.823934,-0.134529,-9.743103
89.243943,0.831715,-0.111185,-9.734723
89.278212,0.794305,-0.092180,-9.736219
89.311491,0.772008,-0.044444,-9.745048
89.344803,0.765274,-0.013169,-9.761359
89.378134,0.763029,-0.054021,-9.738314
89.411438,0.770811,-0.055218,-9.730832
89.444764,0.769464,-0.067788,-9.751782
89.478110,0.749412,-0.034568,-9.657058
89.511512,0.744773,-0.043995,-9.666785
89.544768,0.788020,-0.088738,-9.739362
89.577147,0.772457,-0.054470,-9.695516
89.611439,0.799393,-0.043247,-9.669778
89.644894,0.822138,-0.028881,-9.727839
89.678134,0.813160,-0.068985,-9.763903
89.711053,0.807324,-0.039655,-9.718860
89.744859,0.802086,-0.019603,-9.710331
89.778157,0.772307,-0.027235,-9.684592
89.811523,0.763478,-0.054769,-9.732628
89.844953,0.775899,-0.035166,-9.750884
89.878240,0.793407,-0.011523,-9.723350
89.911059,0.804929,-0.009577,-9.678906
89.944916,0.823036,-0.036812,-9.728288
89.978275,0.826628,-0.046090,-9.683694
90.011619,0.852516,-0.034867,-9.650773
90.044988,0.838300,-0.063898,-9.722901
90.078260,0.849373,-0.037860,-9.710480
90.111631,0.815255,-0.007632,-9.739661
90.144950,0.773953,-0.020202,-9.752231
90.178263,0.814058,-0.016012,-9.760910
90.211013,0.800739,-0.025140,-9.764651
90.244973,0.801039,-0.012869,-9.764502
90.278275,0.832015,-0.008380,-9.734872
90.311599,0.860746,0.028731,-9.765998
90.344936,0.815255,0.002544,-9.683395
90.377712,0.833062,-0.009278,-9.688633
90.411595,0.820792,-0.053423,-9.778718
90.444872,0.872718,-0.050430,-9.735321
90.478197,0.892770,-0.041451,-9.693122
90.511491,0.908183,-0.000898,-9.661547
90.544916,0.907136,0.000000,-9.695815
90.578195,0.850271,-0.006584,-9.674267
90.611583,0.856107,-0.011373,-9.663642
90.644925,0.859100,-0.017209,-9.639550
90.677990,0.893368,0.001496,-9.752979
90.711493,0.906387,-0.001945,-9.755373
90.747503,0.910278,-0.027834,-9.673818
90.777135,0.900252,-0.055817,-9.710181
90.811514,0.898007,-0.046689,-9.755224
90.844824,0.868378,-0.049233,-9.727240
90.877323,0.848924,-0.035615,-9.735022
90.911477,0.897109,0.003143,-9.737566
90.944888,0.917311,0.021399,-9.723799
90.978259,0.902347,0.039356,-9.744150
91.011616,0.887383,0.030228,-9.708236
91.044854,0.882893,0.026936,-9.750435
91.078241,0.868228,0.015413,-9.739511
91.112223,0.897259,-0.000150,-9.747143
91.144984,0.852516,-0.025739,-9.694020
91.177840,0.848326,-0.065394,-9.684742
91.211283,0.870323,-0.034418,-9.675913
91.244934,0.871221,-0.052375,-9.707637
91.278203,0.866283,-0.033969,-9.698210
91.311590,0.843238,-0.051477,-9.668431
91.344493,0.809269,-0.028283,-9.693122
91.378261,0.809568,-0.015114,-9.743701
91.411206,0.834259,0.010774,-9.745198
91.445090,0.818996,0.021698,-9.741905
91.478290,0.828274,-0.017359,-9.731131
91.511535,0.843088,-0.012720,-9.687435
91.544964,0.801488,-0.051926,-9.726343
91.578192,0.809419,-0.034418,-9.762407
91.611457,0.811663,-0.017808,-9.755972
91.644260,0.827226,-0.002843,-9.704794
91.678130,0.839796,-0.027983,-9.701951
91.710892,0.848027,-0.059708,-9.774677
91.744811,0.829471,-0.019753,-9.719309
91.777722,0.816901,-0.032473,-9.725145
91.811147,0.853264,-0.001945,-9.743552
91.844181,0.839497,0.008679,-9.717214
91.878192,0.811214,-0.020351,-9.767494
91.911684,0.786673,-0.036363,-9.751632
91.944496,0.848326,0.009577,-9.696115
91.977227,0.839647,0.027983,-9.701203
92.011519,0.824982,-0.001796,-9.779765
92.045303,0.849972,-0.024242,-9.747742
92.077475,0.818996,-0.017209,-9.732029
92.110688,0.823485,-0.036214,-9.661847
92.144888,0.842639,-0.026636,-9.724248
92.178356,0.837701,-0.003591,-9.755224
92.211615,0.806127,0.009727,-9.710780
92.244915,0.807473,0.019154,-9.723649
92.278243,0.832613,-0.033969,-9.703447
92.311594,0.814656,-0.025439,-9.788295
92.344099,0.831566,-0.051028,-9.680851
92.378338,0.847278,-0.016461,-9.689530
92.410744,0.829471,-0.007632,-9.696264
92.444956,0.837552,-0.047138,-9.734872
92.478821,0.840694,0.014665,-9.739062
92.511599,0.869426,0.032024,-9.771834
92.543904,0.858951,-0.013318,-9.744150
92.578246,0.850122,-0.013318,-9.704195
92.611562,0.870323,-0.011523,-9.736818
92.644918,0.871969,-0.015862,-9.799967
92.678544,0.874962,0.042798,-9.777371
92.710836,0.883941,0.044594,-9.718561
92.744858,0.846680,0.024093,-9.699108
92.778185,0.846530,-0.010325,-9.739661
92.810706,0.859250,-0.025888,-9.768243
92.844879,0.845034,-0.064646,-9.669029
92.877715,0.855509,-0.040703,-9.663044
92.911860,0.902048,0.020351,-9.737566
92.944669,0.910428,0.031874,-9.720357
92.978255,0.903993,0.026636,-9.693272
93.011590,0.909380,0.008081,-9.689530
93.050324,0.915216,0.011523,-9.707188
93.078247,0.911475,-0.011822,-9.709283
93.111519,0.918059,-0.036812,-9.720357
93.144948,0.904891,-0.003143,-9.736967
93.178385,0.916862,0.021848,-9.758815
93.211027,0.891722,0.016610,-9.749537
93.244625,0.943648,0.014366,-9.804007
93.278244,0.918658,0.011074,-9.772433
93.311601,0.940955,0.019903,-9.729036
93.344942,0.895763,0.027085,-9.733974
93.378266,0.911026,-0.002694,-9.764651
93.411584,0.938261,0.036663,-9.673968
93.444652,0.944846,0.029779,-9.659752
93.478278,0.935717,0.028881,-9.720058
93.511626,0.919406,0.006734,-9.705842
93.545269,0.882594,-0.008979,-9.717663
93.578287,0.873167,-0.007931,-9.669927
93.611575,0.854461,0.036214,-9.686388
93.645125,0.869426,0.004789,-9.729335
93.678275,0.900252,-0.002394,-9.726792
93.711652,0.877656,-0.010026,-9.724397
93.744916,0.873316,-0.069434,-9.745198
93.778249,0.909979,-0.023344,-9.774079
93.811595,0.874663,-0.050729,-9.706141
93.845010,0.861794,-0.019454,-9.699108
93.878221,0.854312,0.002095,-9.754924
93.911619,0.802834,-0.001347,-9.731281
93.944944,0.906836,-0.001796,-9.723200
93.978290,0.909979,-0.001496,-9.690877
94.011608,0.874513,-0.022746,-9.724098
94.044779,0.803283,-0.052525,-9.756271
94.078279,0.816452,-0.033071,-9.707637
94.111598,0.846979,-0.011523,-9.742055
94.156271,0.808521,0.011822,-9.718262
94.178274,0.808670,-0.009577,-9.742504
94.211538,0.805229,-0.057762,-9.734274
94.244532,0.855958,-0.080658,-9.725894
94.278267,0.755398,-0.135277,-9.649875
94.310709,0.826777,-0.047586,-9.816128
94.344841,0.843238,-0.072278,-9.859226
94.378248,0.776048,-0.165804,-9.676960
94.411612,0.850870,-0.074373,-9.705093
94.444903,0.846979,-0.202018,-9.820767
94.478262,0.786972,-0.277887,-9.662445
94.511607,0.700479,-0.198576,-9.658554
94.544922,0.916713,-0.223866,-10.180509
94.578249,0.710954,-0.116422,-9.814183
94.611590,0.839497,-0.245414,-9.642393
94.644189,0.943948,-0.205609,-9.805504
94.677535,0.996323,-0.262025,-9.695367
94.711572,0.816751,-0.151139,-9.748190
94.744930,0.842041,-0.160417,-9.757169
94.778252,0.891573,-0.111783,-9.729186
94.811040,0.921052,-0.067938,-9.790539
94.844961,0.908033,-0.052974,-9.768542
94.878218,0.924344,-0.147548,-9.740559
94.912204,0.909081,-0.077515,-9.747592
94.943956,0.868228,-0.058211,-9.665288
94.978282,0.907435,-0.000599,-9.722751
95.011585,0.899953,0.040553,-9.738613
95.044768,0.908931,0.046539,-9.787996
95.078252,0.871221,-0.010774,-9.701951
95.111683,0.883193,0.011672,-9.657656
95.144716,0.886485,-0.005088,-9.680702
95.177365,0.913869,-0.019304,-9.739511
95.211705,0.877057,0.003741,-9.661098
95.251428,0.914767,0.046689,-9.670077
95.278220,0.896960,0.014515,-9.743103
95.311620,0.926739,0.016610,-9.738164
95.344938,0.948437,0.024541,-9.736369
95.378292,0.941703,-0.005088,-9.736518
95.411613,0.952028,-0.000898,-9.754625
95.444956,0.883193,0.082753,-9.763005
95.478198,0.914468,0.046838,-9.755972
95.511601,0.942152,0.090085,-9.747442
95.544996,1.002757,0.041152,-9.730233
95.578287,1.003506,0.023644,-9.743252
95.611523,0.980012,0.022446,-9.740110
95.644958,1.007097,0.021698,-9.713623
95.677307,0.947539,0.037860,-9.735321
95.711621,0.985997,0.033221,-9.745796
95.744945,0.961606,0.031275,-9.688633
95.778277,0.981658,0.018107,-9.698659
95.810864,1.037774,0.007183,-9.695965
95.844522,0.986746,0.052674,-9.770038
95.878082,0.943798,0.012121,-9.689381
95.911599,0.946043,-0.007632,-9.710480
95.944619,0.895014,0.036962,-9.698808
95.978224,0.888580,0.044145,-9.682198
96.011587,0.970883,0.020202,-9.738613
96.044952,1.000513,0.023195,-9.683844
96.078283,0.969986,0.048933,-9.699706
96.111528,0.968340,0.054769,-9.769589
96.144869,0.911176,0.000150,-9.819121
96.178257,0.892770,0.011971,-9.734573
96.211586,0.869874,0.035914,-9.699856
96.244963,0.880349,0.054171,-9.796525
96.283355,0.895014,0.011822,-9.753129
96.311545,0.878254,0.018107,-9.762407
96.344939,0.917311,0.011074,-9.715718
96.378193,0.909829,0.008380,-9.740858
96.411057,0.926439,0.020800,-9.708086
96.444874,0.880050,-0.011523,-9.671723
96.478249,0.913869,0.002394,-9.741457
96.511594,0.894865,0.041451,-9.728587
96.544948,0.898456,0.070332,-9.690129
96.578297,0.910727,0.036363,-9.674267
96.611605,0.882295,0.017658,-9.726792
96.644957,0.888430,0.024691,-9.690728
96.678280,0.898456,-0.000150,-9.710181
96.711622,0.900851,-0.000898,-9.702250
96.744637,0.911924,0.029180,-9.727989
96.778284,0.908931,0.008829,-9.755074
96.811016,0.900701,0.020202,-9.706290
96.845030,0.874513,0.031126,-9.712276
96.878214,0.894865,0.040104,-9.749837
96.911625,0.869426,0.045043,-9.746844
96.945263,0.861644,0.010026,-9.748490
96.978283,0.886784,-0.008230,-9.756570
97.011007,0.890226,0.035166,-9.721105
97.044831,0.916264,0.049382,-9.757319
97.078234,0.868827,0.024841,-9.727540
97.112145,0.866133,0.015413,-9.727689
97.144881,0.876459,0.045491,-9.717065
97.178293,0.904891,0.024841,-9.725894
97.211608,0.865236,0.020351,-9.693272
97.244953,0.892022,0.036363,-9.734274
97.278277,0.894416,0.038608,-9.751034
97.311246,0.879751,0.027684,-9.722602
97.344950,0.876608,0.027983,-9.714371
97.383894,0.900851,0.064047,-9.753578
97.411521,0.877656,0.048035,-9.716167
97.444925,0.895613,0.038159,-9.721704
97.478255,0.921950,0.017957,-9.760611
97.511579,0.934221,0.053572,-9.706290
97.544734,0.942302,0.083650,-9.741457
97.578203,0.924494,0.060306,-9.756122
97.611580,0.908333,0.076468,-9.748490
97.644889,0.902197,0.031575,-9.733226
97.678246,0.918359,0.045192,-9.718112
97.711580,0.914618,0.067938,-9.728438
97.744947,0.923297,0.050879,-9.761958
97.777643,0.952477,0.049681,-9.720207
97.811537,0.964598,0.067190,-9.683395
97.844962,0.947240,0.024242,-9.691625
97.878253,0.986147,0.067938,-9.720806
97.911608,0.974625,0.056415,-9.714970
97.944143,0.970584,0.036812,-9.712725
97.978259,0.996323,0.049083,-9.747891
98.011591,0.995425,0.058660,-9.667234
98.044953,1.035080,0.032473,-9.724248
98.078249,1.044508,0.033969,-9.724996
98.111588,1.028346,0.051178,-9.723649
98.144926,0.980760,0.064945,-9.712127
98.178262,0.994527,0.085147,-9.709134
98.211585,0.977468,0.092330,-9.709433
98.244932,0.995425,0.094125,-9.731580
98.278251,0.961905,0.043995,-9.689680
98.311628,0.980311,0.050430,-9.737267
98.345005,0.951280,0.077515,-9.765998
98.378291,0.941553,0.067639,-9.737715
98.411407,0.939159,0.051028,-9.720058
98.444802,0.971931,0.020501,-9.738314
98.478173,0.975223,0.015713,-9.713174
98.511492,0.918359,0.018406,-9.726492
98.544836,0.932425,-0.001945,-9.752380
98.578167,0.943349,0.025888,-9.721853
98.611519,0.925242,0.033969,-9.704345
98.644848,0.896062,0.006884,-9.671573
98.678618,0.948886,0.020950,-9.752380
98.711393,0.925691,0.006285,-9.699407
98.744589,0.939309,0.049681,-9.706290
98.778264,0.935867,0.056266,-9.720507
98.810931,0.914318,0.003891,-9.717364
98.844968,0.916264,0.042199,-9.695666
98.878395,0.908931,0.057164,-9.710780
98.911161,0.892171,0.012570,-9.747592
98.944978,0.874513,0.013917,-9.717214
98.978197,0.905639,-0.007183,-9.728138
99.011587,0.914169,0.019454,-9.723200
99.044938,0.922549,0.033370,-9.744000
99.078267,0.897708,0.057762,-9.754326
99.111586,0.900851,0.047586,-9.742055
99.144968,0.871371,0.005686,-9.741606
99.178228,0.916264,-0.018556,-9.718112
99.211613,0.932126,-0.006285,-9.727240
99.244963,0.950382,0.000599,-9.709882
99.277815,0.918359,-0.003891,-9.716317
99.311580,0.897109,-0.002394,-9.707188
99.344896,0.905789,0.017658,-9.688333
99.378233,0.849822,0.017209,-9.678158
99.411588,0.885737,0.055368,-9.755373
99.444942,0.906387,0.080508,-9.734573
99.478172,0.939309,0.020351,-9.711977
99.511580,0.944097,-0.002394,-9.685191
99.544955,0.924644,-0.008829,-9.718711
99.577941,0.858502,0.030378,-9.720955
99.611591,0.869126,0.038907,-9.727689
99.650597,0.885288,0.064496,-9.732179
99.678206,0.889927,0.003143,-9.702400
99.711514,0.946342,-0.008829,-9.725445
99.744953,0.940955,0.021100,-9.743552
99.778287,0.921352,0.024093,-9.702549
99.811330,0.923147,0.030078,-9.757468
99.844953,0.923746,0.053273,-9.726343
99.878277,0.901000,0.093676,-9.725594
99.910605,0.924943,0.031425,-9.715419
99.944785,0.948437,-0.011074,-9.699407
99.978284,0.950682,-0.007033,-9.750734
100.011517,0.953824,-0.007033,-9.727839
100.044961,0.959361,0.033670,-9.716466
100.078342,0.981508,0.021100,-9.725145
100.111583,0.921950,0.048933,-9.718561
100.144920,0.948437,0.049382,-9.711678
100.177612,0.941104,0.030228,-9.750136
100.211674,0.962503,0.012869,-9.742055
100.244938,0.988541,0.055218,-9.687286
100.278253,0.971632,0.039506,-9.723799
100.311585,0.941404,0.037560,-9.716017
100.344928,0.952477,0.008679,-9.697761
100.378276,0.985548,0.039955,-9.703747
100.411657,1.009042,0.042948,-9.711229
100.444930,1.008593,0.035914,-9.738164
100.478260,0.999465,0.036812,-9.700305
100.511596,1.010090,0.061952,-9.709583
100.544764,1.008743,0.039206,-9.739960
100.578252,1.000962,0.040254,-9.720806
100.611486,1.028795,0.016610,-9.707787
100.644770,1.056629,0.028283,-9.745497
100.678098,1.002159,0.033520,-9.733675
100.711447,0.991684,0.024093,-9.723649
100.744808,1.020116,0.021399,-9.774079
100.777233,0.988541,0.005238,-9.709433
100.810848,1.004852,0.052974,-9.726941
100.844484,1.005002,0.037710,-9.778718
100.878153,1.006199,0.051178,-9.741756
100.911518,0.994527,0.063748,-9.692523
100.944895,0.954423,0.061054,-9.694020
