time_tick,acc_X_value,acc_Y_value,acc_Z_value
0.031296,2.677561,-3.778185,-8.535783
0.064711,2.136752,-3.391807,-8.591451
0.097895,1.596241,-3.288553,-8.613448
0.131228,1.759951,-3.646948,-8.798856
0.164572,1.323742,-3.585595,-8.888043
0.197934,1.777160,-3.951771,-8.512140
0.231365,1.589208,-3.760827,-8.113641
0.264561,1.910342,-3.631685,-8.314910
0.297981,1.819209,-3.551476,-7.772305
0.331253,1.243084,-2.941382,-6.552416
0.364583,1.758454,-3.494462,-8.090147
0.398120,2.170272,-3.306361,-9.579094
0.431607,2.945721,-4.727969,-10.575866
0.465019,1.286780,-3.930522,-7.673241
0.497964,1.609859,-3.790905,-8.803046
0.531362,0.864188,-3.403180,-10.218518
0.565311,2.212621,-3.840287,-9.299561
0.598141,1.767433,-3.579160,-9.717963
0.631404,1.685877,-3.392705,-9.466114
0.664646,1.687823,-3.224057,-9.697611
0.698029,1.097032,-3.251442,-9.406855
0.731766,1.396318,-3.350057,-9.429750
0.764710,1.266728,-3.532471,-8.835069
0.798470,1.062016,-3.366368,-9.740708
0.831456,0.889927,-3.246204,-9.012845
0.864787,0.779939,-3.301123,-8.540123
0.898083,0.816302,-3.293342,-8.646220
0.931239,1.032536,-3.278827,-9.051154
0.964901,1.002608,-3.435952,-9.432743
0.998135,1.072940,-3.750202,-8.988603
1.031314,0.906088,-3.534866,-9.240751
1.064985,0.998867,-3.302620,-9.458931
1.098173,0.885886,-3.208644,-9.072403
1.132455,0.833062,-3.257727,-8.928895
1.167745,1.092094,-2.880028,-9.215911
1.198120,1.648467,-2.543481,-9.115650
1.231424,1.469793,-2.974303,-9.103229
1.264815,1.243533,-3.287805,-9.067614
1.297991,0.884689,-3.010218,-9.208129
1.331443,1.057976,-3.414852,-9.003717
1.364743,1.213754,-3.018149,-9.379021
1.398913,1.285283,-3.142352,-9.433192
1.431424,1.022510,-3.253986,-9.645236
1.464726,0.797747,-3.135020,-9.269932
1.498086,0.631044,-3.149685,-9.202742
1.531280,0.527940,-3.201760,-9.429900
1.565194,0.694942,-3.163751,-9.390993
1.598102,0.557121,-3.214929,-9.384109
1.631461,0.263222,-3.387018,-9.235514
1.664564,0.089935,-3.400935,-8.965708
1.698092,0.099513,-3.207148,-8.986807
1.732192,0.292103,-3.004082,-9.368247
1.766270,0.511629,-1.026401,-10.407667
1.797994,0.628051,-2.688186,-9.279209
1.831720,-0.033071,-2.814185,-8.679441
1.864577,0.253944,-4.223672,-9.457434
1.897989,0.214588,-4.989844,-9.100237
1.931472,-0.005387,-3.217623,-9.703747
1.964734,0.262923,-3.172430,-9.144381
1.997914,-0.202617,-3.019645,-8.669564
2.031472,0.124952,-3.799285,-8.609557
2.064746,-0.298987,-3.561801,-9.039182
2.098411,0.562957,-3.248748,-9.407603
2.131381,-0.487986,-3.340180,-9.242846
2.165364,0.400295,-3.528730,-9.033196
2.197995,0.023494,-3.691691,-9.260953
2.231358,-0.371863,-3.673734,-8.946404
2.264773,-0.724122,-3.760527,-8.695303
2.297951,1.200286,-3.344670,-9.692972
2.331304,-0.664265,-3.059001,-9.118343
2.365048,-1.722540,-2.760314,-9.249431
2.397902,-1.512741,-2.871050,-8.451983
2.431741,-0.602911,-2.760314,-8.463057
2.465320,-0.818846,-2.944225,-8.354416
2.497986,-0.982705,-2.596754,-8.986358
2.531324,-0.909679,-2.799969,-9.087816
2.565189,-1.089251,-2.452199,-9.071954
2.597982,-1.292765,-2.565329,-9.656609
2.631347,-0.896661,-2.605284,-9.696713
2.666019,-0.886934,-2.022574,-9.203640
2.698394,-1.536983,-2.480930,-10.023085
2.731530,-0.561311,-2.937940,-10.033260
2.764895,-0.359891,-2.842917,-10.132773
2.798000,-0.560263,-2.778121,-9.927912
2.831253,-0.505644,-2.578049,-10.210288
2.864749,0.009727,-2.417482,-9.762556
2.898206,-0.745970,-2.175210,-8.907796
2.931305,-0.764825,-2.149621,-10.067828
2.964908,-0.419000,-2.193616,-10.562697
2.998339,-0.213989,-2.147376,-10.358584
3.032392,-0.310210,-2.134806,-9.651671
3.065259,-0.079610,-1.956133,-10.182155
3.097981,0.033221,-1.752020,-9.225338
3.131888,-0.104151,-1.784642,-9.425261
3.165762,0.119116,-1.938924,-9.679205
3.198274,0.327718,-1.520522,-9.226984
3.231327,-0.093228,-1.489097,-8.113042
3.265029,-0.254692,-1.360703,-9.321110
3.298337,0.162512,-3.132476,-12.354522
3.342055,0.775899,-2.637457,-9.202293
3.364545,0.847727,-2.271131,-9.277863
3.397934,0.579567,-1.635298,-9.572809
3.431347,0.481551,-1.697101,-9.437083
3.464621,0.410321,-1.689619,-9.509809
3.497914,0.373509,-1.578135,-9.686238
3.531411,0.061354,-1.767582,-9.744599
3.564818,-0.448330,-1.900765,-9.618151
3.598017,-0.093527,-1.841356,-9.551260
3.631491,-0.030826,-1.639937,-9.707488
3.664749,-0.043247,-1.613450,-9.641196
3.697945,-0.134529,-1.787186,-9.677260
3.731400,-0.152935,-1.794818,-9.610070
3.765173,-0.098764,-1.741545,-9.568619
3.797997,-0.147548,-1.755162,-9.678906
3.831280,-0.074522,-1.679592,-9.617702
3.866733,-0.054470,-1.516781,-9.878679
3.898286,-0.076617,-1.626918,-9.739212
3.932629,-0.076916,-1.675552,-9.680103
3.964975,-0.046689,-1.660737,-9.676661
3.997993,-0.095323,-1.619137,-9.673968
4.031398,-0.070631,-1.654303,-9.731281
4.064714,-0.092779,-1.626918,-9.749837
4.099222,-0.162363,-1.723587,-9.726941
4.131310,-0.097866,-1.658193,-9.771385
4.165142,-0.162961,-1.655799,-9.744749
4.197922,-0.033370,-1.566612,-9.752979
4.231508,-0.067339,-1.545662,-9.712575
4.264685,-0.074223,-1.523814,-9.711079
4.298426,-0.044145,-1.536833,-9.727540
4.331541,-0.039206,-1.552845,-9.697910
4.364979,-0.094125,-1.536833,-9.657656
4.398042,-0.089636,-1.545662,-9.672471
4.431267,-0.010774,-1.514237,-9.717514
4.465251,-0.082753,-1.563918,-9.630421
4.498831,-0.046090,-1.588610,-9.726642
4.531397,-0.112083,-1.659091,-9.650324
4.564608,-0.065843,-1.602077,-9.701203
4.598388,-0.033071,-1.617790,-9.689680
4.631764,-0.060456,-1.606866,-9.736069
4.664987,-0.132733,-1.547308,-9.709882
4.697904,-0.056565,-1.634101,-9.699706
4.731501,-0.066441,-1.591004,-9.700305
4.764988,-0.059408,-1.617940,-9.707637
4.799647,-0.054769,-1.610308,-9.728737
4.831553,-0.048634,-1.571700,-9.724846
4.864827,-0.046240,-1.610906,-9.664989
4.897941,-0.058810,-1.549702,-9.726941
4.931485,-0.067040,-1.580678,-9.766896
4.964725,-0.052076,-1.563170,-9.733376
4.997948,-0.042499,-1.588909,-9.736069
5.031261,-0.061653,-1.572298,-9.706141
5.064873,-0.063598,-1.586963,-9.647630
5.098419,-0.099064,-1.630958,-9.594507
5.131234,-0.053423,-1.625422,-9.745347
5.164611,-0.061653,-1.590705,-9.733226
5.198013,-0.062401,-1.559579,-9.713623
5.231237,-0.059109,-1.610906,-9.799368
5.264708,-0.064795,-1.531296,-9.764352
5.298078,-0.063449,-1.571401,-9.666336
5.331691,-0.047138,-1.617191,-9.625483
5.364848,-0.036513,-1.576488,-9.590766
5.398538,-0.046838,-1.566013,-9.731131
5.431227,-0.074821,-1.611804,-9.645535
5.464673,-0.000898,-1.787635,-9.646733
5.498066,-0.063898,-1.637992,-9.751932
5.531560,-0.053871,-1.556586,-9.691625
5.564943,-0.045342,-1.566163,-9.659153
5.598075,-0.054320,-1.593997,-9.641645
5.631994,-0.048035,-1.580828,-9.655113
5.667168,-0.056864,-1.551947,-9.821216
5.698039,-0.029330,-1.656398,-9.519237
5.731618,-0.073475,-1.613750,-9.934945
5.766596,-0.058959,-1.544166,-9.766447
5.797955,-0.051926,-1.598187,-9.835133
5.831393,-0.067639,-1.633802,-9.710331
5.865588,-0.038758,-1.571850,-9.708834
5.897952,-0.000150,-1.609111,-9.677858
5.931434,-0.090833,-1.538180,-9.640148
5.966347,-0.076617,-1.551498,-9.709433
5.998267,-0.064945,-1.534289,-9.689979
6.031595,-0.065993,-1.515733,-9.747592
6.064817,-0.075869,-1.523814,-9.729186
6.097972,-0.062850,-1.515284,-9.726492
6.139517,-0.049233,-1.545063,-9.697611
6.164564,-0.035465,-1.546410,-9.730832
6.197861,-0.067040,-1.522617,-9.740559
6.231232,-0.078712,-1.521270,-9.722452
6.264680,-0.088439,-1.556287,-9.680402
6.297967,-0.055966,-1.561524,-9.676362
6.332671,-0.070781,-1.565116,-9.739511
6.364597,-0.092779,-1.561674,-9.692673
6.397975,-0.057164,-1.552097,-9.683395
6.431403,-0.067639,-1.532793,-9.697312
6.464836,-0.069584,-1.563918,-9.707488
6.497968,-0.060905,-1.585018,-9.706889
6.533232,-0.053871,-1.497627,-9.698060
6.565185,-0.086045,-1.615845,-9.675015
6.598821,-0.066741,-1.562572,-9.714371
6.631368,-0.063000,-1.605818,-9.683395
6.664860,-0.061054,-1.594296,-9.740110
6.698224,-0.091432,-1.576040,-9.682497
6.733000,-0.050579,-1.568857,-9.735321
6.764746,-0.076168,-1.578583,-9.696115
6.798201,-0.086793,-1.608811,-9.666186
6.832895,-0.033819,-1.600731,-9.676811
6.865181,-0.050729,-1.601180,-9.706141
6.898445,-0.057912,-1.593997,-9.699706
6.931657,-0.079909,-1.602227,-9.642094
6.965471,-0.078413,-1.573645,-9.677709
6.999130,-0.050430,-1.591453,-9.693571
7.032113,-0.042050,-1.615396,-9.688184
7.065096,-0.078862,-1.616593,-9.685191
7.100709,-0.064945,-1.609560,-9.707188
7.131247,-0.063299,-1.613750,-9.693122
7.165494,-0.061204,-1.622279,-9.693122
7.204823,-0.047287,-1.579032,-9.693421
7.231244,-0.063598,-1.583971,-9.708984
7.264893,-0.049233,-1.561225,-9.725594
7.297912,-0.051776,-1.584719,-9.729934
7.333621,-0.114776,-1.580828,-9.683994
7.364583,-0.071829,-1.582025,-9.725445
7.399785,-0.061204,-1.569006,-9.686238
7.431575,-0.072876,-1.518427,-9.732927
7.468723,-0.041900,-1.525460,-9.726343
7.498287,-0.068237,-1.528004,-9.696564
7.531533,-0.064496,-1.496280,-9.723649
7.565141,-0.048484,-1.509299,-9.667982
7.598569,-0.061204,-1.509897,-9.687136
7.631247,-0.052375,-1.514237,-9.667832
7.665167,-0.056565,-1.525610,-9.701053
7.698566,-0.056116,-1.519474,-9.687585
7.731225,-0.045342,-1.504660,-9.696414
7.765313,-0.058810,-1.496579,-9.699557
7.798838,-0.024541,-1.502714,-9.689530
7.831396,-0.049233,-1.495831,-9.703896
7.865270,-0.042648,-1.527555,-9.722003
7.899038,-0.056864,-1.503612,-9.713473
7.931551,-0.059259,-1.487750,-9.729934
7.964872,-0.031126,-1.516332,-9.761359
7.999449,-0.023344,-1.534588,-9.748340
8.031607,-0.067639,-1.522617,-9.707188
8.065270,-0.048035,-1.495831,-9.688483
8.099705,-0.064197,-1.512591,-9.741008
8.131535,-0.036214,-1.522617,-9.676512
8.165176,-0.061204,-1.493736,-9.705692
8.198648,-0.010924,-1.504809,-9.666336
8.232086,-0.055817,-1.519026,-9.710480
8.265033,-0.029330,-1.444503,-9.749388
8.297978,-0.065993,-1.488947,-9.647032
8.335212,-0.036962,-1.449891,-9.780364
8.365148,-0.086943,-1.483859,-9.669778
8.397882,-0.033221,-1.461114,-9.711678
8.432079,-0.036962,-1.492539,-9.714670
8.464908,-0.002993,-1.456924,-9.734274
8.499790,-0.047736,-1.457522,-9.716466
8.531189,-0.050879,-1.438667,-9.698210
8.564987,-0.035615,-1.454230,-9.737715
8.598936,-0.027085,-1.449292,-9.698359
8.631965,0.004340,-1.452584,-9.705093
8.665276,0.021100,-1.455278,-9.710480
8.698338,0.093377,-1.492688,-9.703447
8.732391,0.009428,-1.434477,-9.681899
8.766364,0.212643,-1.437919,-9.694469
8.798861,0.117769,-1.448095,-9.710780
8.832005,0.161614,-1.477574,-9.687585
8.865135,0.106995,-1.475629,-9.697611
8.899235,0.168947,-1.470242,-9.730383
8.931872,0.214139,-1.453033,-9.723948
8.966244,0.184360,-1.468297,-9.738464
9.001196,0.178823,-1.455727,-9.717514
9.031488,0.333105,-1.454978,-9.761958
9.065073,0.411069,-1.456026,-9.714670
9.098643,0.306618,-1.522168,-9.687735
9.131716,0.372312,-1.438817,-9.727839
9.165830,0.446983,-1.437171,-9.711079
9.198722,0.491727,-1.498824,-9.624136
9.232280,0.550985,-1.472636,-9.652868
9.266029,0.547244,-1.466052,-9.760461
9.298269,0.596477,-1.468596,-9.712575
9.333880,0.649151,-1.485057,-9.727540
9.366486,0.762730,-1.487451,-9.739960
9.398611,0.753153,-1.456924,-9.767195
9.433245,0.776946,-1.538778,-9.676063
9.468262,0.784728,-1.502714,-9.719459
9.497946,0.789965,-1.485954,-9.761658
9.533667,0.814955,-1.536085,-9.661847
9.565459,0.885138,-1.486703,-9.751333
9.599203,0.861794,-1.535486,-9.707338
9.633564,0.834559,-1.546560,-9.732777
9.665139,0.848924,-1.528303,-9.747442
9.699008,0.849224,-1.548505,-9.719309
9.732688,0.890974,-1.558232,-9.705093
9.765707,0.894266,-1.561823,-9.668281
9.799635,0.912523,-1.508999,-9.727540
9.832567,0.945294,-1.539078,-9.687136
9.866558,0.982855,-1.540275,-9.705243
9.900549,0.924943,-1.531147,-9.713623
9.933463,0.885138,-1.560626,-9.673818
9.965934,0.951579,-1.579182,-9.724846
9.999076,0.949335,-1.554192,-9.685191
10.032395,0.924644,-1.563769,-9.689830
10.066262,0.899653,-1.538778,-9.716915
10.099651,0.951729,-1.548954,-9.705093
10.132445,0.972081,-1.614198,-9.674267
10.168100,0.971931,-1.605070,-9.679355
10.198545,0.959660,-1.564667,-9.677709
10.233692,0.925542,-1.582923,-9.726642
10.266530,0.967741,-1.649365,-9.729036
10.299439,1.000513,-1.635448,-9.696863
10.332784,0.992731,-1.628714,-9.697312
10.366069,0.933772,-1.646072,-9.739960
10.399205,0.839796,-1.567061,-9.761209
10.435277,1.163025,-1.713561,-9.707637
10.466708,0.999166,-1.630958,-9.727540
10.500394,0.954572,-1.612403,-9.710780
10.533053,0.995126,-1.650861,-9.684293
10.569305,1.006050,-1.610757,-9.651072
10.598783,1.019218,-1.626918,-9.721255
10.632090,0.946192,-1.574842,-9.757768
10.666802,1.008294,-1.655051,-9.717514
10.699746,1.008444,-1.594446,-9.748490
10.732677,0.967591,-1.607016,-9.727091
10.769094,1.005301,-1.591153,-9.697312
10.798123,1.038672,-1.648018,-9.646882
10.832961,1.005301,-1.653854,-9.674865
10.865918,1.008893,-1.628714,-9.666186
10.899908,0.968340,-1.587861,-9.648678
10.931892,1.014579,-1.660887,-9.631768
10.966888,0.993480,-1.652208,-9.673219
10.998757,1.030292,-1.674804,-9.661098
11.031694,1.024605,-1.677797,-9.626680
11.064704,1.048099,-1.693509,-9.667533
11.098466,1.039869,-1.699495,-9.732927
11.131435,1.013831,-1.629013,-9.697162
11.165506,1.006349,-1.681987,-9.643740
11.198858,0.995425,-1.678246,-9.761359
11.233066,1.024156,-1.661336,-9.599894
11.266062,0.995874,-1.635298,-9.700604
11.299073,1.043460,-1.659690,-9.785152
11.335344,1.061268,-1.718649,-9.777820
11.365995,1.057527,-1.677049,-9.616056
11.398746,1.001111,-1.624524,-9.645835
11.434022,1.024156,-1.689319,-9.805204
11.465902,1.064261,-1.663581,-9.735471
11.499198,1.050942,-1.629761,-9.702400
11.533120,0.987793,-1.608063,-9.828998
11.566594,1.024007,-1.678246,-9.819570
11.600884,1.035230,-1.650711,-9.638502
11.631499,1.012634,-1.603275,-9.755074
11.665231,1.053786,-1.662383,-9.811789
11.698972,1.089401,-1.669417,-9.700305
11.732506,1.002308,-1.595194,-9.534949
11.766924,1.023558,-1.563918,-9.654963
11.798003,1.031040,-1.654901,-9.629224
11.834112,1.033733,-1.630210,-9.635360
11.866087,1.034931,-1.630061,-9.680851
11.898002,1.012933,-1.660438,-9.638801
11.931475,1.017422,-1.656098,-9.640597
11.967310,1.018919,-1.650562,-9.600792
11.999892,1.042263,-1.636795,-9.675015
12.033381,0.972679,-1.660288,-9.664390
12.064834,1.056479,-1.655201,-9.684592
12.098578,1.062764,-1.680341,-9.645386
12.131731,1.046603,-1.659690,-9.661697
12.164748,1.025204,-1.622279,-9.698659
12.198151,1.037923,-1.624673,-9.754475
12.231328,1.069049,-1.619885,-9.786200
12.264962,1.033733,-1.602227,-9.846057
12.298080,1.085211,-1.624823,-9.772283
12.331332,1.056778,-1.585168,-9.711079
12.364922,1.062764,-1.616293,-9.818074
12.397944,1.049895,-1.628265,-9.761808
12.431877,1.132947,-1.646222,-9.636856
12.464570,1.052738,-1.635298,-9.630421
12.497963,1.060819,-1.629911,-9.719908
12.531350,1.047052,-1.689020,-9.606928
12.565208,0.993629,-1.631707,-9.709134
12.598059,0.987344,-1.706678,-9.711079
12.632005,1.056778,-1.645025,-9.672022
12.664955,1.043460,-1.665376,-9.608125
12.706764,1.040767,-1.677797,-9.705692
12.731403,1.048548,-1.664179,-9.672172
12.764737,1.093591,-1.598037,-9.634761
12.798080,1.039270,-1.641433,-9.730084
12.831311,1.017871,-1.654602,-9.665737
12.865415,1.033285,-1.654003,-9.746395
12.897977,1.052439,-1.671961,-9.719309
12.931286,1.023408,-1.671661,-9.713473
12.964685,1.041515,-1.711317,-9.684892
12.997971,1.050194,-1.648916,-9.646134
13.031411,1.111847,-1.673008,-9.722003
13.064809,1.039121,-1.612852,-9.727689
13.098057,1.052588,-1.684082,-9.786050
13.131305,1.088952,-1.688721,-9.754775
13.164973,1.034781,-1.683483,-9.667234
13.198257,1.061717,-1.645474,-9.773779
13.231450,0.981358,-1.623476,-9.749837
13.264702,1.022959,-1.613600,-9.896487
13.298319,1.068301,-1.733314,-9.761808
13.331508,1.041066,-1.699196,-9.678756
13.364863,0.992282,-1.672410,-9.674417
13.398096,1.039121,-1.641583,-9.710929
13.431302,1.082667,-1.567360,-9.735920
13.465036,0.939458,-1.698298,-9.784105
13.498197,1.066954,-1.674505,-9.606628
13.531889,1.099127,-1.648317,-9.617552
13.564655,1.065009,-1.650262,-9.760611
13.598033,1.048548,-1.673158,-9.781561
13.631422,1.110500,-1.628564,-9.631170
13.664609,1.064261,-1.578583,-9.672920
13.697928,1.038223,-1.536085,-9.671873
13.731454,1.051691,-1.558681,-9.718412
13.764638,0.979563,-1.644875,-9.641495
13.797904,0.976869,-1.550002,-9.598548
13.831296,0.992731,-1.737804,-9.580590
13.870245,1.050344,-1.687224,-9.528365
13.897939,0.928834,-1.630061,-9.754027
13.931307,0.961755,-1.788084,-9.621443
13.964612,1.049895,-1.756060,-9.745048
13.997944,1.033883,-1.709671,-9.703896
14.031288,0.963551,-1.739599,-9.575203
14.065116,0.956967,-1.707127,-9.737267
14.097936,1.033733,-1.715507,-9.877332
14.131319,0.997221,-1.758005,-9.735471
14.164602,1.035978,-1.713262,-9.751932
14.198091,0.939758,-1.783295,-9.805953
14.231334,1.055132,-1.887147,-9.824209
14.264614,1.085809,-1.795865,-9.718112
14.298189,0.943648,-1.835969,-9.812537
14.331227,0.940057,-1.888494,-9.764950
14.364725,0.985848,-1.908397,-9.725145
14.398407,0.982406,-1.867993,-9.668730
14.431314,0.970734,-1.895527,-9.670975
14.464606,0.975971,-1.905553,-9.714521
14.497973,1.040767,-1.928598,-9.649725
14.531322,1.015776,-1.887297,-9.685191
14.564962,0.959361,-1.987408,-9.758217
14.597990,1.029992,-2.039484,-9.676960
14.631461,1.001860,-1.961669,-9.622790
14.665576,0.946342,-1.965111,-9.642692
14.698032,0.957865,-1.920667,-9.652718
14.731298,0.990786,-1.868741,-9.701652
14.765424,0.966843,-1.823848,-9.517890
14.797978,0.933622,-1.853029,-9.766896
14.831613,1.014280,-1.836568,-9.705842
14.864638,0.982556,-1.769079,-9.650773
14.897972,0.926439,-1.920518,-9.654514
14.931355,1.009042,-1.785989,-9.434689
14.972299,0.992133,-1.470841,-9.784404
14.998109,0.948886,-1.762944,-9.898282
15.031251,1.016076,-1.737055,-9.663642
15.064715,1.000513,-1.562721,-9.742055
15.097938,0.999166,-1.599982,-9.689830
15.131221,0.921950,-1.631557,-9.673070
15.164747,1.186519,-1.595343,-9.621144
15.197971,0.856556,-1.650262,-9.907560
15.231435,0.924195,-1.728675,-10.003930
15.264885,1.088652,-1.589507,-9.604084
15.298564,1.034781,-1.567959,-9.714371
15.331234,0.961157,-1.519474,-9.893494
15.364772,1.037774,-1.573196,-9.761060
15.397983,1.070097,-1.557035,-9.453693
15.431316,1.136987,-1.668818,-9.777820
15.464801,1.025653,-1.685129,-9.724846
15.497888,1.065458,-1.776860,-9.484520
15.531311,1.007396,-1.625721,-9.560538
15.564681,1.016525,-1.671212,-9.743402
15.597955,1.014729,-1.821604,-9.688483
15.631413,0.944846,-1.597289,-9.508762
15.664715,0.957266,-1.681538,-9.302255
15.697908,1.084911,-1.847492,-9.434090
15.731369,1.068750,-1.698597,-9.578196
15.764570,0.968489,-1.627367,-9.720357
15.798054,0.978964,-1.706827,-9.601840
15.831273,0.980012,-1.652507,-9.732478
15.864986,0.946941,-1.682735,-9.595704
15.897913,0.783381,-1.756958,-9.563531
15.931476,0.889627,-1.558232,-9.348195
15.965241,0.917910,-1.579032,-9.368995
15.997946,0.790863,-1.530398,-9.200048
16.031309,0.800889,-1.356064,-9.993904
16.065113,0.792808,-1.644726,-9.757169
16.104429,0.779640,-1.648018,-9.891848
16.131360,0.831117,-1.784492,-10.000488
16.164611,0.805678,-1.728825,-9.885413
16.197941,0.730557,-1.742143,-9.513850
16.231609,0.735645,-1.700393,-10.063488
16.264575,0.806426,-1.858116,-9.879128
16.297917,0.844136,-1.773568,-9.636108
16.331576,0.759887,-1.843451,-10.175122
16.364801,0.860597,-1.801851,-9.870449
16.397952,0.890376,-1.645324,-9.763903
16.431466,0.774552,-1.604322,-10.085635
16.464643,0.764526,-1.784043,-9.921926
16.498104,0.786673,-1.708773,-9.531208
16.531310,0.704818,-1.610906,-9.600942
16.564674,0.721578,-1.827589,-9.864164
16.598135,0.650348,-1.554790,-9.337421
16.631341,0.551734,-1.731519,-9.454441
16.664800,0.572384,-1.721343,-9.333380
16.698124,0.554427,-1.846744,-9.372587
16.731260,0.604408,-1.643678,-9.220250
16.764925,0.616828,-1.327333,-10.102096
16.797945,0.697336,-2.013895,-10.595618
16.831299,0.888879,-1.892385,-9.317668
16.865020,0.672795,-1.619137,-9.847553
16.898082,0.698982,-1.867394,-10.151478
16.931462,0.675189,-1.914382,-10.251140
16.965110,0.568942,-1.780152,-10.195922
16.997966,0.711103,-1.554341,-10.271342
17.031308,0.779191,-1.065158,-10.135017
17.064754,0.533477,-1.837615,-10.183352
17.097999,0.764975,-1.606118,-9.969512
17.131329,0.454017,-1.488798,-10.162253
17.164685,0.514921,-1.915430,-10.542046
17.208695,0.672795,-1.846594,-9.649875
17.231219,0.531232,-1.492389,-9.492451
17.264602,0.517615,-1.631407,-9.677409
17.297960,0.609645,-1.479370,-9.178949
17.331260,0.505195,-1.539676,-8.927698
17.364648,0.520608,-1.357561,-9.296269
17.398099,0.469131,-1.440762,-9.607227
17.431838,0.551135,-1.643080,-9.289834
17.465392,0.552332,-1.365193,-9.264993
17.498110,0.572384,-1.182778,-9.441123
17.531389,0.522404,-1.498674,-9.375879
17.564920,0.520608,-1.245628,-9.634013
17.597975,0.606503,-1.106759,-9.628476
17.631412,0.626256,-1.402903,-9.496940
17.664872,0.505494,-1.345739,-9.658554
17.698316,0.429625,-1.215699,-9.805653
17.731274,0.616679,-1.475180,-9.852941
17.764998,0.458057,-1.095536,-9.964724
17.797968,0.663367,-1.154346,-9.687136
17.831512,0.435012,-1.196395,-9.793083
17.864707,0.398798,-1.084762,-10.048674
17.898007,0.531981,-1.324490,-9.957242
17.931305,0.630146,-1.335863,-9.681749
17.964901,0.445637,-1.216148,-9.913696
17.998077,0.424986,-1.387639,-9.735620
18.031608,0.643016,-1.448843,-9.483921
18.065092,0.519860,-1.293813,-9.482724
18.098132,0.454017,-1.353670,-9.612165
18.131378,0.440100,-1.410983,-9.601091
18.164695,0.498461,-1.446748,-9.453843
18.197938,0.527042,-1.663281,-9.525372
18.231383,0.439651,-1.362798,-8.906299
18.276617,0.382487,-1.659091,-9.668132
18.298122,0.333255,-1.600431,-10.101198
18.331496,0.476463,-1.665526,-9.696863
18.364612,0.454316,-1.397515,-9.340563
18.397953,0.423041,-1.702189,-9.971607
18.431549,0.284621,-1.955085,-9.937938
18.464586,0.516867,-1.752469,-9.894691
18.498066,0.255889,-1.973342,-10.422931
18.531274,0.192740,-2.270383,-10.924384
18.564819,0.238232,-2.403266,-10.448669
18.598072,0.115225,-2.023322,-10.298428
18.631257,0.183911,-2.191222,-9.997346
18.664589,0.194536,-1.887746,-9.928211
18.697992,0.121660,-1.659391,-9.999441
18.731497,0.027385,-2.019282,-9.224440
18.764747,-0.015563,-1.752020,-9.535398
18.798115,0.055817,-1.569306,-9.476289
18.831377,-0.030228,-1.442408,-9.619348
18.864646,-0.038758,-1.517230,-9.605880
18.898407,-0.064047,-1.468596,-9.736369
18.931517,0.118966,-1.341699,-9.435287
18.964768,-0.027235,-1.382551,-9.339965
18.997971,-0.108641,-1.380905,-9.875686
19.031290,0.085446,-1.259994,-9.487812
19.064740,-0.068836,-1.300098,-8.768179
19.098146,0.011074,-1.465004,-9.697162
19.131422,-0.078563,-1.533242,-10.208492
19.164650,-0.006435,-1.295609,-9.930456
19.197906,-0.205011,-1.310124,-9.637006
19.232452,-0.075869,-1.164970,-9.471650
19.264604,-0.003442,-1.258048,-10.115714
19.297939,-0.050430,-1.153448,-9.866558
19.331446,-0.147847,-1.462012,-10.054360
19.369036,-0.010325,-1.325537,-9.796675
19.397897,-0.047138,-1.349630,-9.696863
19.431251,-0.190795,-1.228269,-10.087581
19.464880,-0.039955,-1.125614,-9.330088
19.498077,-0.127197,-0.906986,-10.021439
19.531271,-0.071529,-1.481166,-9.686388
19.564679,-0.108491,-1.254457,-9.354480
19.598068,0.022147,-1.133994,-9.692673
19.631276,0.100261,-1.417717,-9.534351
19.664750,-0.200222,-1.266279,-9.915791
19.697943,-0.171341,-1.355466,-9.562184
19.731273,0.160118,-1.266578,-9.570714
19.764870,-0.079760,-1.255804,-9.684742
19.797888,-0.169545,-1.331822,-9.946467
19.831387,-0.052974,-1.240390,-9.554702
19.864639,-0.071829,-1.175445,-9.555899
19.898060,-0.168947,-1.142674,-9.896936
19.931434,0.137223,-1.430587,-9.608125
19.964582,-0.087840,-1.298003,-9.700305
19.997947,-0.070033,-1.357262,-9.906962
20.031910,-0.034867,-1.594595,-9.612913
20.064759,-0.182265,-1.674355,-9.683395
20.097945,-0.137073,-1.575142,-10.143697
20.131386,-0.093228,-1.743939,-9.295820
20.164612,0.008530,-1.551797,-9.948562
20.198102,-0.118966,-1.616293,-10.130528
20.231275,0.020800,-1.917076,-9.594507
20.264655,0.058510,-1.667322,-9.884665
20.298090,-0.114626,-1.562422,-9.856083
20.331197,-0.073026,-1.971845,-9.457135
20.364672,-0.245265,-1.785989,-9.991211
20.398100,-0.164607,-1.561524,-9.986422
20.437726,-0.087840,-1.429988,-9.615756
20.464716,-0.148296,-1.333019,-9.768991
20.497953,-0.150242,-1.352174,-10.114965
20.531245,-0.025290,-1.409786,-9.883617
20.564619,-0.141562,-1.227072,-9.664690
20.597929,-0.055667,-1.375668,-9.802062
20.631271,-0.017658,-1.465753,-9.640896
20.664625,-0.178973,-1.247723,-9.744749
20.697886,-0.043845,-1.261789,-9.845009
20.731264,-0.090085,-1.180384,-9.579393
20.764682,-0.147548,-1.321198,-9.691177
20.797980,0.033819,-1.214502,-9.671424
20.831303,0.065843,-1.355765,-9.750285
20.864589,-0.069434,-1.381354,-9.728737
20.898026,0.103104,-1.304886,-9.755074
20.931307,0.080508,-1.172602,-9.709882
20.964655,-0.163410,-1.415473,-9.830045
20.997953,0.027834,-1.223780,-9.336223
21.031258,-0.004489,-1.030142,-9.389496
21.064617,-0.395207,-1.316858,-9.821665
21.097916,0.011373,-1.528004,-9.218305
21.131303,-0.320236,-1.289773,-9.276516
21.165004,0.066292,-1.221685,-9.954847
21.197970,-0.134379,-1.599982,-9.346100
21.231227,-0.026337,-0.949933,-9.702998
21.264593,0.029929,-1.257001,-9.975498
21.297939,-0.056415,-1.461263,-9.621443
21.331283,-0.309462,-1.485954,-9.955895
21.364603,-0.125401,-1.388836,-9.069709
21.397946,-0.168049,-1.530698,-10.463783
21.431340,-0.020651,-1.532493,-10.278525
21.464675,-0.063598,-1.230813,-9.275169
21.503057,0.033969,-1.562871,-10.100600
21.531307,-0.169695,-1.479669,-10.011712
21.564634,-0.193937,-1.101522,-9.574006
21.597972,0.025439,-1.446449,-9.512652
21.631311,-0.055817,-1.615096,-10.058700
21.664577,-0.107144,-1.416819,-9.096944
21.697952,-0.102356,-1.390033,-9.400420
21.731309,-0.007033,-1.529201,-9.956194
21.764666,-0.096370,-1.313865,-9.468508
21.798079,0.043696,-1.217495,-9.583583
21.831225,-0.002095,-1.221984,-10.153274
21.864632,-0.008829,-1.397366,-9.325748
21.898534,-0.089486,-1.277502,-9.526120
21.931266,-0.133332,-1.328380,-10.043137
21.964676,-0.017508,-1.399162,-9.612464
21.997968,-0.085596,-1.362948,-9.763005
22.031267,-0.056415,-1.398413,-10.360230
22.064689,-0.034418,-1.380007,-9.964724
22.098058,0.073175,-1.299350,-9.890501
22.131299,-0.134828,-1.428641,-9.911750
22.164893,-0.109239,-1.357411,-9.955296
22.198147,-0.054919,-1.282141,-9.762706
22.231377,-0.134529,-1.160182,-9.746694
22.264632,-0.061653,-1.183975,-9.488560
22.298088,-0.095622,-1.289174,-9.606179
22.332046,-0.183163,-1.344692,-9.551560
22.364625,-0.081256,-1.396468,-9.600792
22.397903,-0.043696,-1.390033,-9.496192
22.431232,-0.146052,-1.329578,-9.749388
22.464818,-0.143957,-1.408439,-9.687585
22.497920,-0.091581,-1.419064,-9.873741
22.531688,-0.054919,-1.292765,-9.810442
22.564563,-0.139916,-1.433879,-9.956493
22.597973,-0.175531,-1.455427,-9.957391
22.638848,0.022746,-1.494634,-9.902472
22.664610,0.008829,-1.486553,-9.738763
22.697942,-0.170892,-1.367737,-10.118108
22.731363,-0.084548,-1.464705,-9.652718
22.764607,-0.077515,-1.422506,-9.666934
22.797955,-0.098315,-1.446449,-9.729784
22.831264,-0.194835,-1.432981,-9.693421
22.864615,-0.070482,-1.403352,-9.554702
22.897970,0.037261,-1.274210,-9.478235
22.931272,0.249904,-1.371478,-9.397727
22.964604,-0.042199,-1.234704,-9.559790
22.997998,0.108042,-1.154495,-9.854587
23.031302,0.214738,-1.315062,-9.633265
23.064605,-0.008530,-1.172602,-9.923273
23.097971,-0.189448,-1.254457,-9.817625
23.131237,-0.111783,-1.277053,-9.803259
23.164605,-0.055069,-1.526508,-9.762556
23.197911,0.062251,-1.422955,-9.835582
23.231416,0.015563,-1.532793,-9.695367
23.264607,-0.180619,-1.515733,-9.921776
23.297926,-0.008829,-1.371029,-9.775874
23.331245,-0.101159,-1.466800,-9.863416
23.364665,-0.141712,-1.563918,-9.892297
23.398188,-0.130040,-1.593997,-9.916838
23.431336,-0.120313,-1.496878,-9.701203
23.464613,-0.160866,-1.435824,-9.874639
23.497931,0.039057,-1.342597,-9.287889
23.531295,-0.210099,-1.303540,-9.719459
23.564600,-0.084249,-1.451986,-9.736369
23.597958,-0.015114,-1.591453,-9.876883
23.631291,0.085596,-1.521121,-9.522679
23.664772,-0.174933,-1.485356,-9.509510
23.697962,-0.077216,-1.324939,-9.719609
23.733799,-0.000299,-1.095536,-10.012310
23.764675,0.069584,-1.305036,-9.885413
23.798118,0.156377,-1.439715,-9.289684
23.831227,-0.263072,-1.042862,-9.728138
23.864592,-0.142610,-1.113493,-9.877033
23.897951,-0.047886,-1.142225,-9.804157
23.931390,-0.068088,-1.173650,-9.723948
23.964648,0.003143,-1.180384,-9.461175
23.997918,-0.028283,-1.287229,-9.676960
24.031587,-0.260828,-1.203429,-9.671424
24.064647,-0.040553,-1.009192,-9.251526
24.097938,0.215187,-1.491491,-9.751932
24.131791,-0.027534,-1.340651,-10.065583
24.164686,-0.056415,-1.453931,-9.494246
24.197926,-0.040104,-1.102270,-9.763454
24.231205,-0.151439,-1.506755,-10.019344
24.264882,0.169246,-1.571999,-9.818822
24.298041,-0.109090,-1.460366,-9.658704
24.331701,-0.312754,-1.404998,-10.565840
24.364611,0.052225,-1.478921,-10.290197
24.398132,-0.083052,-1.544315,-9.727839
24.431337,-0.103254,-1.389135,-10.047626
24.464620,0.067339,-1.555838,-9.613661
24.497914,-0.008230,-1.358309,-9.935244
24.531436,-0.103104,-1.360703,-10.017249
24.564628,-0.159070,-1.512441,-9.961132
24.598354,-0.012121,-1.737804,-9.587175
24.631563,-0.013767,-1.713711,-9.248533
24.664818,-0.157424,-1.742891,-9.540336
24.697883,-0.024392,-1.614647,-9.667982
24.731261,-0.073026,-1.468297,-9.848751
24.764620,-0.060456,-1.689020,-9.552308
24.797946,-0.032024,-1.714010,-9.425710
24.831357,-0.202766,-1.331972,-9.730982
24.864596,0.004190,-1.651759,-10.046130
24.897942,-0.015713,-1.728526,-10.083690
24.932105,-0.087990,-1.302642,-9.944223
24.964612,-0.007183,-1.341848,-10.158960
24.997941,0.013618,-1.584420,-10.013208
25.031343,0.038907,-1.248321,-10.033709
25.064599,0.121061,-1.330326,-10.014405
25.097938,0.111933,-1.410085,-9.960534
25.131908,-0.063149,-1.252063,-9.683694
25.164866,-0.081855,-1.164671,-9.511455
25.197921,-0.172389,-1.372525,-10.101946
25.231288,-0.007183,-1.289623,-9.437981
25.264596,0.011373,-1.140279,-9.398475
25.298065,0.043396,-1.137436,-9.650923
25.331230,0.013318,-1.196994,-9.279359
25.364640,-0.000748,-1.047501,-9.201994
25.397907,-0.023195,-1.251015,-9.736518
25.431247,-0.017957,-1.390183,-9.922824
25.464714,-0.153085,-1.605968,-9.871347
25.497922,0.008530,-1.286031,-10.063937
25.531259,-0.141562,-1.145966,-9.637604
25.564748,-0.064646,-1.088204,-9.576400
25.598057,0.214588,-0.946791,-9.129417
25.631272,-0.156975,-0.899504,-9.910254
25.664699,-0.182564,-1.051840,-9.767494
25.697973,-0.090235,-1.351725,-9.196307
25.731282,0.118966,-1.446898,-9.149619
25.765278,0.003442,-1.422805,-10.042538
25.798360,-0.126748,-1.356364,-10.165694
25.831276,-0.100261,-1.109902,-10.084737
25.864638,-0.087691,-1.073688,-10.626744
25.898078,-0.001945,-1.465154,-10.176918
25.931283,-0.034268,-1.643828,-9.510109
25.964592,0.003143,-1.479669,-10.052564
26.007934,-0.165505,-1.423104,-9.811639
26.031272,-0.276540,-1.460216,-9.503375
26.064631,-0.120313,-1.516182,-9.943923
26.097914,0.022895,-1.391230,-9.911002
26.131274,-0.140964,-1.505558,-9.503824
26.164972,-0.172239,-1.620783,-10.237673
26.197947,-0.142909,-1.794967,-9.789941
26.231241,-0.030976,-1.595343,-9.305397
26.264632,-0.145004,-1.608213,-9.645236
26.298074,-0.092030,-1.803198,-9.699257
26.331654,0.055069,-1.502714,-9.554852
26.364597,-0.032323,-1.564816,-9.973852
26.398360,0.060306,-1.680939,-9.724098
26.431271,-0.093826,-1.523216,-9.632816
26.464737,-0.100560,-1.490593,-9.807449
26.497977,-0.139168,-1.544764,-9.819570
26.531230,-0.080957,-1.608512,-9.881223
26.564596,-0.073325,-1.576788,-9.884216
26.597967,-0.135577,-1.598187,-9.762706
26.631228,-0.090235,-1.373423,-9.778718
26.664604,-0.076168,-1.391979,-9.950059
26.698012,-0.002993,-1.369083,-9.839922
26.732103,-0.030976,-1.312668,-9.967417
26.764609,-0.057014,-1.165270,-9.792934
26.797970,-0.158322,-1.179635,-9.739062
26.831424,-0.006285,-1.255953,-9.666186
26.864607,-0.041301,-1.252661,-9.582835
26.898110,-0.065244,-1.159583,-9.378722
26.931577,-0.083501,-1.080572,-9.328741
26.964610,-0.036513,-1.005900,-9.349841
26.998192,-0.117320,-1.163324,-9.560389
27.032248,-0.102056,-1.009940,-9.170120
27.064693,-0.136923,-1.036726,-9.467909
27.097949,-0.159519,-1.123819,-9.836629
27.131256,-0.006285,-1.240241,-9.631469
27.164542,0.054769,-1.182927,-9.395033
27.197925,-0.001945,-1.250117,-9.812238
27.231503,-0.013019,-1.276903,-9.883468
27.264587,0.130189,-1.181281,-9.682348
27.297967,0.150391,-1.296357,-10.037899
27.331256,0.038309,-1.461413,-10.094913
27.364560,0.092928,-1.467548,-9.714072
27.397873,0.054021,-1.408140,-9.890202
27.433384,0.032024,-1.416819,-10.099402
27.464617,-0.041601,-1.430437,-9.881522
27.498574,-0.024841,-1.462161,-9.826005
27.531292,-0.331309,-1.566762,-10.166143
27.565169,-0.017359,-1.803347,-9.760012
27.597948,-0.126748,-1.660588,-9.369145
27.631986,-0.030078,-1.535636,-9.721704
27.664614,-0.221172,-1.653854,-9.732179
27.697916,-0.203215,-1.407242,-9.693870
27.731250,-0.137223,-1.463807,-9.574305
27.764745,-0.134978,-1.492239,-9.839473
27.798249,-0.142909,-1.786587,-9.601540
27.831224,-0.077515,-1.448544,-9.769889
27.864640,-0.200222,-1.492539,-9.728887
27.898015,-0.075420,-1.343943,-10.143996
27.931632,-0.160567,-1.402304,-9.717514
27.964500,-0.073325,-1.362349,-9.375580
27.998052,-0.089486,-1.647419,-10.003930
28.031305,-0.109539,-1.676300,-9.551111
28.064601,-0.150092,-1.406045,-9.396829
28.097910,-0.086494,-1.237846,-9.926715
28.131268,-0.067938,-1.401556,-9.760461
28.164606,-0.082902,-1.265081,-9.483173
28.197933,-0.164907,-1.184873,-9.529263
28.231235,-0.127645,-1.663281,-9.733675
28.264557,-0.079760,-1.463059,-9.622790
28.298067,-0.065095,-1.435525,-9.411793
28.331241,-0.141263,-1.488498,-9.648828
28.364562,-0.130788,-1.429539,-10.278824
28.397908,-0.024691,-1.259545,-10.040294
28.431280,-0.199773,-1.291419,-9.975797
28.464758,-0.162512,-1.313566,-9.908608
28.497885,-0.071230,-1.184873,-9.774977
28.531325,-0.084099,-1.441959,-9.698509
28.564581,-0.063898,-1.133994,-9.844112
28.597873,-0.215935,-1.053636,-10.011113
28.631295,-0.095622,-1.142823,-10.094315
28.664583,-0.066142,-1.098529,-10.053013
28.697912,-0.001496,-1.248621,-9.507415
28.731229,-0.154282,-1.214801,-9.427955
28.764613,-0.082453,-1.199089,-9.325898
28.797829,-0.004489,-1.218543,-9.330238
28.831216,-0.169396,-1.314913,-9.411793
28.864553,-0.086793,-1.277352,-9.474344
28.897911,-0.051477,-1.507952,-9.540935
28.931268,-0.064047,-1.592949,-9.239404
28.964578,-0.163410,-1.472187,-9.299262
28.997874,-0.109988,-1.483261,-9.723050
29.031224,-0.043845,-1.526059,-9.631319
29.064602,-0.141113,-1.422805,-9.581039
29.098175,-0.114028,-1.507054,-9.771235
29.131250,0.040553,-1.534439,-9.847553
29.164540,-0.010625,-1.457822,-9.888256
29.197913,-0.091282,-1.500021,-10.236326
29.231229,0.036363,-1.530997,-9.911900
29.264588,-0.009876,-1.575740,-10.106136
29.297893,-0.148595,-1.502714,-10.170184
29.331232,-0.077515,-1.641882,-10.097607
29.364638,-0.066741,-1.481316,-10.237373
29.397945,-0.126748,-1.430736,-10.027724
29.431280,-0.111185,-1.624673,-9.789193
29.464567,-0.153983,-1.676300,-9.826005
29.497908,-0.143208,-1.631407,-9.949909
29.531259,-0.124802,-1.664030,-9.802212
29.564570,-0.060306,-1.713561,-9.510109
29.597895,-0.230151,-1.654303,-9.758516
29.631257,-0.016461,-1.708174,-9.632516
29.664618,-0.142460,-1.606267,-9.766746
29.697897,-0.103403,-1.387639,-9.819869
29.731263,0.066292,-1.365941,-9.684892
29.764522,-0.056266,-1.366839,-9.449952
29.797929,-0.033221,-1.273910,-9.711079
29.831277,0.017808,-1.272713,-10.102096
29.864554,-0.034568,-1.334067,-9.837976
29.897889,-0.017808,-0.824533,-9.561586
29.931216,-0.013318,-0.947240,-9.763454
29.965147,-0.088888,-1.180084,-9.982232
29.997924,0.002993,-1.131001,-9.655113
30.031266,-0.083201,-1.154944,-9.715269
30.064919,-0.227008,-1.184125,-9.766746
30.097918,-0.132434,-1.233656,-9.601840
30.131270,-0.102056,-1.433729,-9.354480
30.164892,-0.136474,-1.352323,-9.625783
30.197904,-0.156975,-1.447047,-9.696863
30.231277,-0.137672,-1.487451,-9.704944
30.264783,-0.064197,-1.335863,-9.676212
30.297943,-0.082004,-1.389734,-9.690877
30.331455,-0.227008,-1.479071,-9.883168
30.367706,-0.076168,-1.262238,-9.647780
30.397967,-0.053123,-1.382402,-9.418976
30.431250,-0.150990,-1.142075,-9.455489
30.464640,-0.266215,-1.109303,-9.648079
30.498082,-0.118966,-1.064410,-9.611716
30.531623,-0.125700,-1.128607,-9.494396
30.564984,-0.064346,-1.192056,-9.821216
30.598069,-0.093976,-1.229915,-9.889154
30.631396,0.061653,-1.303540,-9.449054
30.664641,-0.023344,-1.148210,-9.095747
30.697961,-0.126448,-1.210761,-9.752680
30.731438,-0.048634,-1.161379,-10.045531
30.764706,-0.020800,-1.061567,-9.827202
30.797906,-0.122558,-1.127709,-9.918783
30.831269,-0.096071,-1.408739,-10.016650
30.864582,-0.017059,-1.426247,-9.526420
30.897919,0.157275,-1.262238,-9.713623
30.931251,-0.059109,-1.470691,-10.227347
30.964572,-0.046689,-1.397964,-10.406919
30.997954,0.057313,-1.399311,-9.739212
31.031315,-0.061503,-1.286480,-9.613063
31.064609,-0.086793,-1.402005,-10.050619
31.099065,-0.103553,-1.542519,-10.178564
31.131982,0.023943,-1.471439,-10.038348
31.164649,-0.118068,-1.210462,-9.976396
31.198080,-0.088589,-1.531596,-9.816877
31.231263,-0.218179,-1.416071,-9.292378
31.264609,-0.116422,-1.299350,-9.670077
31.297973,-0.159519,-1.343794,-9.647331
31.331243,-0.105947,-1.642182,-9.903969
31.364743,-0.096071,-1.656098,-9.548268
31.398926,-0.047736,-1.778057,-9.376328
31.431245,-0.142460,-1.663880,-9.414038
31.464637,-0.117919,-1.643379,-9.854287
31.497950,0.010774,-1.615545,-9.495294
31.531261,-0.084249,-1.631707,-9.109664
31.564606,-0.154581,-1.217645,-9.591065
31.597928,0.029929,-1.442259,-9.637305
31.631402,-0.024242,-1.587263,-9.688333
31.664598,-0.061054,-1.333019,-9.518937
31.697996,-0.205609,-1.420860,-9.729485
31.731304,-0.352559,-1.510795,-9.934646
31.764961,0.166253,-1.191906,-9.614709
31.797971,0.106097,-1.290371,-9.441871
31.831444,-0.263821,-1.217046,-10.235428
31.864638,-0.090235,-1.421758,-10.019942
31.897922,0.228954,-1.204775,-9.418078
31.931446,-0.021100,-0.873167,-9.590317
31.964564,-0.066292,-1.029992,-9.883318
31.997916,-0.162512,-0.925991,-9.207680
32.031328,0.046838,-1.257001,-10.516008
32.065071,-0.179721,-1.423254,-10.185597
32.097969,0.061653,-1.177391,-9.935394
32.131712,-0.118966,-0.744174,-9.432743
32.166126,-0.064646,-1.042263,-9.975049
32.197939,-0.022446,-1.152251,-10.409912
32.231367,-0.046689,-1.298302,-9.744898
32.264646,-0.067040,-1.026102,-9.496341
32.298121,0.159669,-1.458271,-9.746993
32.331850,-0.046988,-0.991385,-10.059897
32.364641,0.034568,-1.427444,-9.423615
32.398006,0.031575,-1.243832,-9.371988
32.432739,-0.149942,-1.257300,-9.520733
32.465014,-0.144555,-1.516033,-9.971757
32.498662,-0.255889,-1.451387,-10.075759
32.531248,-0.040853,-1.841656,-10.107782
32.565273,-0.049532,-1.557484,-9.226984
32.598560,-0.059109,-1.756958,-9.711378
32.631279,-0.243918,-1.590405,-10.003930
32.664769,-0.273847,-1.657146,-9.888256
32.698786,-0.197828,-1.591752,-10.218219
32.731387,-0.061204,-1.664179,-9.800865
32.764907,-0.037111,-1.852580,-9.260205
32.797904,-0.167002,-1.341549,-9.119092
32.831273,-0.267562,-1.103018,-9.967118
32.864761,-0.077066,-1.634400,-9.733077
32.897949,-0.113878,-1.731519,-9.342060
32.931297,-0.059259,-1.540125,-9.794131
32.964615,-0.174484,-1.543866,-9.618600
32.997997,-0.041152,-1.460814,-9.563681
33.031900,0.001048,-1.183825,-9.608873
33.064768,-0.122109,-1.378062,-9.746694
33.097948,-0.186006,-1.587412,-9.321708
33.131447,-0.034418,-1.403352,-8.997282
33.164865,-0.100859,-1.393625,-9.305696
33.198073,-0.256338,-1.445252,-9.348644
33.231324,-0.470028,-1.270618,-10.203105
33.264724,-0.182415,-1.595493,-9.943624
33.297970,0.093377,-0.890525,-8.842701
33.331363,-0.302129,-1.163923,-9.922824
33.364896,-0.257236,-0.941104,-10.181556
33.397976,-0.088888,-1.036277,-9.820618
33.431252,-0.062251,-1.110800,-10.038348
33.464617,-0.198875,-1.510496,-10.297380
33.497908,-0.414062,-0.859100,-10.278824
33.531316,0.077066,-1.356513,-9.984477
33.564775,0.026337,-1.608662,-10.557759
33.597942,-0.136025,-1.607764,-10.102844
33.631388,-0.138270,-1.399311,-9.709882
33.672255,-0.017359,-1.278998,-10.259969
33.697913,-0.015713,-1.159284,-10.241713
33.731553,-0.145603,-1.633951,-9.914593
33.764765,-0.024691,-1.377164,-9.343406
33.798271,-0.102954,-1.427444,-9.805653
33.831319,-0.042499,-1.443007,-9.671424
33.864644,-0.189298,-1.477724,-9.944372
33.898018,-0.069734,-1.295908,-9.544826
33.931994,-0.057164,-1.578135,-9.668132
33.964616,0.039356,-1.605070,-9.754775
33.998131,0.181367,-1.370580,-9.635958
34.032050,-0.004789,-1.539227,-9.901575
34.064643,-0.033520,-1.478772,-9.733974
34.098826,-0.014964,-1.591303,-9.874190
34.131305,-0.084848,-1.432532,-9.855185
34.164867,-0.200821,-1.483261,-10.002883
34.198151,-0.039805,-1.370430,-9.824508
34.231863,-0.058211,-1.249070,-9.597650
34.264591,-0.042199,-1.267176,-9.542431
34.297973,-0.092779,-1.397665,-9.890052
34.331860,-0.087541,-1.349031,-9.691326
34.364606,-0.051328,-1.267176,-9.685340
34.398304,-0.068686,-1.441511,-9.824508
34.432479,-0.147398,-1.383299,-9.590916
34.464616,-0.106995,-1.202082,-9.396230
34.497929,-0.087691,-1.660887,-9.974002
34.532729,-0.033221,-1.346338,-9.540935
34.564617,0.040703,-1.293813,-9.050405
34.598388,-0.095023,-1.447646,-9.528215
34.631258,-0.220873,-1.380307,-10.057054
34.664840,-0.035166,-1.388836,-9.505619
34.698373,-0.125102,-1.558681,-9.785152
34.731306,-0.159370,-1.588161,-9.966819
34.765207,-0.049532,-1.499722,-9.433342
34.804999,-0.052525,-1.186818,-9.727989
34.831211,-0.067489,-1.329727,-10.061692
34.864602,0.003442,-1.379409,-9.899031
34.898391,0.017508,-1.370280,-9.622041
34.931237,0.003591,-1.287079,-9.587175
34.964617,-0.119714,-1.269720,-10.142949
34.999554,-0.231498,-1.339903,-9.760760
35.031246,-0.192890,-1.327333,-9.957990
35.064601,0.070183,-1.381953,-9.947665
35.098184,-0.078712,-1.540125,-9.719010
35.131241,-0.161465,-1.372824,-9.693870
35.164684,-0.113878,-1.189212,-9.875986
35.197922,-0.093228,-1.520223,-9.833038
35.231230,-0.045342,-1.471589,-9.444715
35.265589,-0.137223,-1.237547,-9.831691
35.298124,-0.177028,-1.541771,-10.030118
35.331266,-0.031724,-1.595493,-9.994802
35.364919,-0.124353,-1.267476,-10.019792
35.398590,-0.118667,-1.468297,-9.830344
35.431324,-0.109988,-1.478472,-9.633564
35.464956,-0.129591,-1.295908,-9.647181
35.497947,-0.057613,-1.228868,-9.801314
35.531337,-0.087840,-1.498375,-9.548268
35.564938,-0.239578,-1.350827,-9.534201
35.598200,-0.087691,-1.286331,-9.613811
35.631208,-0.147249,-1.302492,-9.685340
35.664635,-0.215935,-1.264333,-9.708535
35.698724,-0.123904,-1.428940,-9.719459
35.731232,-0.035316,-1.466202,-9.448456
35.764722,-0.225063,-1.418615,-9.911900
35.799018,-0.080957,-1.443456,-9.544676
35.831278,-0.103703,-1.697550,-9.387102
35.864821,-0.119116,-1.442708,-9.460577
35.904998,0.023045,-1.616293,-9.547220
35.931261,-0.103852,-1.469643,-9.461026
35.964651,-0.115973,-1.385694,-10.161953
35.998853,-0.105199,-1.475629,-10.004080
36.031292,-0.083052,-1.496130,-9.866558
36.064593,-0.109838,-1.573795,-9.897684
36.098472,-0.098914,-1.555688,-9.595405
36.131419,-0.154731,-1.426097,-10.180060
36.165543,-0.085446,-1.604621,-10.376092
36.197924,0.004190,-1.602227,-9.520284
36.231305,-0.136175,-1.297554,-9.501579
36.264937,-0.054620,-1.481316,-9.761808
36.298077,-0.006135,-1.478472,-9.681150
36.331369,-0.117919,-1.218393,-9.598697
36.364575,-0.109090,-1.264034,-9.653317
36.397969,-0.116273,-1.435076,-9.465515
36.431444,-0.064346,-1.239044,-9.342060
36.464605,-0.031275,-1.218094,-9.396380
36.497972,-0.029031,-1.243084,-9.468657
36.531569,-0.099363,-1.093291,-9.202443
36.564602,-0.184510,-1.225127,-9.506667
36.597974,0.023344,-1.336760,-9.712426
36.631258,-0.063299,-1.358159,-9.929857
36.664594,-0.088140,-1.512741,-9.648229
36.697947,-0.024541,-1.439266,-9.895738
36.731389,-0.011523,-1.273461,-9.702849
36.764575,0.000599,-1.359506,-9.906064
36.798156,-0.085895,-1.515434,-10.065583
36.831955,-0.073325,-1.465753,-9.797573
36.864874,-0.239878,-1.492838,-9.836480
36.899144,-0.226709,-1.443606,-9.838126
36.931286,-0.185408,-1.554192,-9.895738
36.964585,-0.170593,-1.435375,-10.369807
36.997927,-0.095771,-1.706528,-9.899928
37.031262,-0.104750,-1.628564,-9.704495
37.066497,-0.007333,-1.641433,-9.479432
37.097905,-0.152935,-1.522467,-9.702400
37.131316,-0.127945,-1.342148,-9.583284
37.165662,-0.180170,-1.648167,-9.686987
37.197974,-0.253495,-1.495083,-9.402216
37.232100,0.006584,-1.410085,-9.424812
37.264796,-0.101458,-1.516781,-10.107782
37.297979,-0.174184,-1.475779,-9.970410
37.331536,-0.090983,-1.280195,-9.869252
37.364766,-0.018705,-1.489995,-9.811789
37.398204,-0.119116,-1.343345,-9.716167
37.431426,-0.085296,-1.301445,-9.569816
37.464626,-0.122857,-1.262837,-9.830045
37.497888,-0.073475,-1.349779,-10.218518
37.531289,-0.085147,-1.447347,-10.174673
37.564609,-0.113130,-1.433430,-9.468209
37.597888,-0.088888,-1.247573,-9.776024
37.631229,-0.005088,-1.315062,-10.084139
37.664625,-0.093377,-1.432233,-9.517142
37.698502,-0.227757,-1.207619,-9.405658
37.731258,0.064047,-1.221835,-9.524474
37.765768,-0.262773,-1.345889,-9.506966
37.798117,-0.275044,-1.202830,-9.600942
37.831293,-0.068536,-1.258647,-9.539588
37.864959,-0.101757,-1.195049,-9.329639
37.897952,-0.180769,-1.213604,-9.485717
37.931248,-0.055368,-1.331523,-9.405358
37.964745,-0.200073,-1.194899,-9.700604
37.997926,-0.162363,-1.271067,-9.962180
38.031261,-0.039655,-1.530997,-9.465964
38.064618,-0.208004,-1.292466,-10.058251
38.097983,-0.111783,-1.258048,-9.818074
38.131235,0.080658,-1.440762,-10.011562
38.164588,-0.181068,-1.187716,-10.256079
38.197914,-0.279683,-1.473384,-10.253235
38.231246,-0.071529,-1.654303,-9.660051
38.264737,-0.049083,-1.422057,-10.259221
38.297953,-0.182864,-1.467548,-10.287354
38.331246,-0.206807,-1.462311,-9.601391
38.365706,0.116422,-1.397515,-9.594507
38.397870,-0.183911,-1.365193,-9.673668
38.431252,-0.122408,-1.495382,-9.798171
38.464586,-0.056864,-1.437620,-9.554253
38.498362,-0.067639,-1.524562,-9.189424
38.531524,-0.078862,-1.560327,-9.144232
38.564615,-0.074971,-1.489396,-9.319613
38.598456,0.002394,-1.393475,-9.182839
38.631377,-0.227906,-1.032237,-9.606928
38.664585,-0.164308,-1.551498,-10.006474
38.697971,-0.083201,-1.325088,-9.968914
38.731431,-0.074971,-1.437769,-9.866408
38.764837,-0.142011,-1.679592,-9.695815
38.797891,-0.076916,-1.567360,-10.216274
38.831255,-0.018855,-1.572897,-10.116013
38.864582,-0.004789,-1.768929,-9.874788
38.897913,-0.004040,-1.627966,-9.739511
38.931244,-0.157574,-1.356813,-9.963976
38.964702,-0.078413,-1.401107,-9.825855
38.997912,-0.119864,-1.422057,-10.128882
39.031249,-0.196631,-1.471289,-9.883019
39.064620,-0.149942,-1.330475,-9.281604
39.097905,-0.071679,-1.390931,-9.762855
39.131698,-0.052674,-1.362349,-9.685340
39.172008,-0.175382,-1.338407,-9.559640
39.197907,-0.186605,-1.446748,-9.574156
39.231323,-0.056415,-1.451537,-9.535997
39.264843,-0.041601,-1.317457,-9.653167
39.297900,-0.237034,-1.198341,-10.114516
39.331294,-0.114327,-1.226025,-9.809694
39.365327,0.016012,-1.275556,-9.733675
39.397973,-0.138270,-1.091346,-9.543928
39.432428,-0.169396,-1.345589,-9.983878
39.464627,-0.150690,-1.387040,-10.243958
39.500699,-0.107743,-1.418765,-9.699108
39.531657,0.122857,-1.426097,-9.719010
39.564812,0.115973,-1.073389,-9.488560
39.598513,-0.086793,-1.406344,-9.160243
39.631207,0.018406,-1.110949,-9.114752
39.664617,-0.092629,-1.132797,-9.989116
39.697961,-0.182864,-1.121574,-9.524474
39.731426,-0.008081,-1.272115,-9.073002
39.764662,-0.025439,-1.152251,-9.999142
39.798663,-0.162961,-1.292316,-9.575503
39.831252,-0.150840,-1.277951,-9.269782
39.864730,-0.251400,-1.312668,-9.783357
39.898020,0.065544,-1.360703,-9.478235
39.931370,0.037261,-1.382551,-9.004166
39.964807,-0.218628,-1.593697,-9.758516
39.997986,-0.124952,-1.491791,-9.406556
40.031268,0.052674,-1.298003,-9.564279
40.065527,-0.143358,-1.533242,-10.022785
40.098591,-0.269357,-1.739150,-10.117210
40.131215,0.032622,-1.368036,-8.956729
40.165481,-0.113130,-1.433729,-9.449503
40.198624,0.051178,-1.554790,-10.340028
40.231695,0.134230,-1.524413,-9.290882
40.264657,0.026337,-1.383000,-9.395183
40.305915,0.064496,-1.282290,-10.099253
40.331295,0.291804,-1.487750,-9.815081
40.365034,0.177925,-1.327034,-9.215462
40.398275,0.280281,-1.401705,-9.707637
40.431325,0.153085,-1.620334,-9.998393
40.465047,0.502202,-1.597139,-9.429900
40.498167,0.342084,-1.472936,-9.440375
40.531272,0.231797,-1.419064,-9.717364
40.565595,0.442345,-1.733015,-9.820767
40.598559,0.397901,-1.566762,-9.389646
40.631295,0.247659,-1.658044,-9.789193
40.665684,0.470477,-1.691863,-9.648229
40.698644,0.269956,-1.505857,-9.779017
40.731829,0.721429,-1.542519,-10.023982
40.765598,0.327868,-1.590555,-9.949610
40.801006,0.292402,-1.522018,-10.238421
40.831532,0.570589,-1.484608,-9.870748
40.865273,0.474667,-1.661935,-9.807449
40.898349,0.480204,-1.474731,-9.966370
40.932656,0.503997,-1.333468,-10.193378
40.964984,0.452371,-1.352473,-9.970859
40.997960,0.537667,-1.384796,-9.731131
41.033156,0.440998,-1.369832,-9.890501
41.065944,0.445038,-1.401257,-9.708834
41.098447,0.436359,-1.325837,-9.497090
41.132395,0.486489,-1.399760,-9.545873
41.164988,0.548292,-1.206721,-9.466413
41.197914,0.376352,-1.261789,-9.511455
41.231331,0.385780,-1.279298,-9.702849
41.265131,0.528689,-1.330176,-9.454292
41.297868,0.523301,-1.242336,-9.529113
41.332196,0.429026,-1.307281,-9.486016
41.372931,0.440399,-1.326435,-9.436784
41.397907,0.477960,-1.077729,-9.953650
41.433345,0.437406,-1.299499,-9.910553
41.464554,0.351362,-1.466052,-9.779167
41.498743,0.390119,-1.310274,-9.764651
41.531255,0.461948,-1.356513,-9.862518
41.565041,0.333404,-1.425798,-9.858028
41.597879,0.515370,-1.353221,-9.820468
41.631404,0.440250,-1.242036,-9.875686
41.664992,0.366476,-1.396468,-9.706290
41.698535,0.435910,-1.603125,-9.710181
41.731606,0.536320,-1.339903,-9.512802
41.765212,0.897109,-1.331972,-9.179847
41.797986,-0.237034,-1.579032,-9.884066
41.832400,-0.467485,-1.946256,-11.076571
41.864658,-0.035016,-1.641733,-11.060260
41.898393,0.148446,-2.041429,-10.199364
41.932090,-0.232695,-2.040980,-9.704345
41.964749,-0.207704,-0.771858,-9.559790
41.998239,0.623263,-1.306084,-9.726343
42.031986,0.479755,-1.861708,-9.577897
42.065026,0.032473,-1.734362,-9.593460
42.098015,0.006435,-1.179186,-9.511755
42.131771,0.642118,-1.421758,-9.895289
42.164988,0.576275,-1.501966,-9.894092
42.198065,0.399696,-1.280345,-9.988816
42.232660,0.149643,-1.274359,-10.566737
42.265209,0.334751,-1.502565,-9.978341
42.298423,0.381440,-1.248022,-9.746694
42.332645,0.270854,-1.654303,-10.095362
42.365436,0.315447,-1.486254,-10.029370
42.398354,0.546346,-1.466501,-9.494845
42.432015,0.446834,-1.236799,-9.365553
42.467961,0.415558,-1.391081,-9.901275
42.498140,0.268310,-1.234554,-9.699108
42.532112,0.194237,-1.012933,-9.461475
42.565085,0.400445,-1.525909,-10.235278
42.597976,0.433815,-1.339155,-10.284960
42.632157,0.285668,-0.952028,-10.065733
42.664735,0.285968,-1.245179,-9.864014
42.698002,0.428128,-1.035080,-9.723200
42.734211,0.438454,-0.863141,-9.559940
42.765892,0.336996,-0.911924,-9.494695
42.798167,0.303925,-0.940356,-10.139058
42.833516,0.382338,-0.942751,-9.778867
42.865790,0.441297,-1.142524,-9.962629
42.898179,0.316196,-1.072341,-9.851294
42.932928,0.326820,-0.802984,-9.673519
42.966166,0.370067,-0.946342,-9.828848
42.999075,0.495318,-1.045855,-9.552308
43.032225,0.371115,-0.972978,-9.690877
43.064858,0.289409,-0.886186,-9.956344
43.098992,0.464641,-1.072042,-9.702100
43.131382,0.336846,-1.194749,-9.727240
43.164510,0.371713,-0.882744,-9.476738
43.197854,0.373509,-1.203279,-9.596153
43.231337,0.350913,-0.961007,-9.657357
43.264738,0.386079,-1.126961,-9.307941
43.298194,0.209350,-1.047351,-9.650474
43.331758,0.178973,-1.318055,-9.562933
43.364843,0.122707,-0.798046,-9.274271
43.398932,0.213540,-1.398264,-10.300523
43.431683,0.209350,-1.462610,-9.620994
43.464852,0.385630,-1.467099,-10.019493
43.497819,0.140066,-1.242485,-9.304798
43.531829,0.080658,-1.541771,-10.226150
43.564800,0.105049,-1.591902,-9.990163
43.597975,0.042050,-1.528453,-9.770787
43.632111,0.129142,-1.737504,-10.075310
43.664687,0.249604,-1.859912,-9.299561
43.698274,0.056864,-1.531895,-10.121250
43.731403,0.276989,-1.002159,-9.362561
43.764724,0.415558,-1.142674,-10.286755
43.798315,0.335649,-1.290521,-9.971308
43.831680,0.295096,-0.986895,-9.581788
43.865003,0.300034,-0.691949,-10.065583
43.898632,0.215336,-1.041814,-10.593673
43.932380,0.183911,-1.023707,-9.391442
43.965045,0.361687,-0.731305,-10.356339
43.998742,0.329963,-0.866133,-9.781411
44.031658,0.445637,-1.112296,-9.443069
44.065774,0.268011,-0.845782,-9.792934
44.098690,0.243469,-1.198041,-9.995401
44.131644,0.448480,-1.063363,-9.366601
44.165097,0.319039,-0.950682,-9.582236
44.198044,0.354354,-1.104814,-9.839622
44.231665,0.231947,-1.037774,-9.713922
44.265313,0.235987,-1.032985,-9.487812
44.298317,0.476912,-1.123370,-9.566225
44.331487,0.356749,-0.887233,-9.592263
44.365008,0.254094,-1.210312,-9.574754
44.398393,0.429026,-1.267925,-9.440525
44.431581,0.481850,-0.803134,-9.533004
44.465220,0.280730,-1.203878,-9.785452
44.498285,0.328017,-1.294860,-9.528365
44.532014,0.495767,-0.761533,-9.891399
44.564926,0.276391,-0.838001,-10.306209
44.598308,0.366476,-1.162576,-9.930306
44.631968,0.384882,-0.732053,-9.786798
44.671756,0.165355,-1.051391,-9.831093
44.698810,0.328915,-1.617790,-9.694469
44.732046,0.317991,-1.016674,-9.396081
44.765777,0.304523,-1.166018,-9.510408
44.798431,0.285219,-1.332421,-9.531807
44.831853,0.338642,-1.145217,-9.472249
44.865221,0.366775,-1.032087,-9.483771
44.899529,0.272949,-1.300547,-9.821815
44.932566,0.349865,-1.328380,-9.384109
44.966382,0.386977,-1.266129,-9.310186
44.998920,0.294048,-1.239343,-9.544526
45.033348,0.281778,-1.135640,-9.919981
45.066235,0.343879,-1.100923,-8.982168
45.099343,0.299436,-1.078926,-9.984776
45.131417,0.219975,-1.513788,-10.080248
45.164909,0.267412,-1.151203,-9.516244
45.198040,0.249006,-1.314464,-9.762556
45.231448,-0.287165,-1.687823,-9.938536
45.264855,-0.470477,-1.695155,-9.773480
45.297938,-0.757193,-1.311171,-9.584481
45.331359,-0.181966,-2.023771,-9.678607
45.365167,0.280132,-1.521121,-8.452582
45.397920,-0.329065,-1.552995,-10.056305
45.431345,-0.057164,-1.997733,-10.519899
45.464573,0.679678,-1.881161,-9.499783
45.498131,0.034119,-1.713112,-9.427805
45.531281,0.227158,-1.784791,-10.731195
45.564759,0.068237,-1.275556,-10.451812
45.598147,0.357497,-0.926439,-9.193314
45.631464,0.315447,-1.490294,-10.000339
45.664603,0.147249,-1.412330,-10.183651
45.698351,0.250652,-1.230664,-9.372138
45.743209,0.437107,-1.438817,-10.290497
45.764587,0.241973,-1.404998,-10.218069
45.797917,0.461798,-1.234255,-9.514897
45.831235,0.174783,-1.113344,-9.654514
45.906051,0.288961,-1.133845,-9.348195
45.931314,0.304972,-1.031638,-9.460128
45.964552,0.361687,-1.187866,-9.632516
45.997901,0.315148,-1.202082,-9.344005
46.031239,0.479755,-1.111997,-9.247186
46.064605,0.379046,-1.175894,-9.485866
46.097920,0.225063,-1.230065,-9.749537
46.134224,0.364381,-1.214801,-9.216659
46.164702,0.163410,-1.253409,-9.277114
46.197914,0.251849,-1.538629,-9.704794
46.231278,0.314549,-1.470092,-9.068662
46.264607,0.329065,-1.207020,-9.400271
46.297938,0.047736,-1.372076,-10.274335
46.331277,0.333704,-1.440613,-10.270594
46.364749,0.424537,-1.709222,-9.605132
46.397953,0.300034,-1.516781,-9.927014
46.431284,0.210697,-1.559878,-10.316235
46.464645,0.164757,-1.394972,-10.519450
46.497907,0.274894,-1.647718,-10.226599
46.531408,0.260528,-1.374470,-10.248896
46.564593,0.148147,-1.550151,-9.933149
46.597941,0.243768,-1.082966,-9.852791
46.631269,0.218179,-0.783830,-10.276131
46.664597,0.420796,-1.284236,-9.960085
46.698036,0.340288,-1.124567,-9.452047
46.731276,0.429625,-0.937812,-9.409399
46.764626,0.410022,-1.405895,-9.550363
46.797946,0.287165,-0.912672,-9.314525
46.839679,0.277737,-0.797597,-9.878529
46.864880,0.358245,-1.240839,-9.873292
46.897932,0.333105,-1.176942,-9.537792
46.931230,0.332806,-0.846829,-9.707188
46.964604,0.309312,-1.017722,-9.807449
46.997926,0.283723,-1.291568,-9.554553
47.031390,0.245265,-1.114241,-9.723200
47.064647,0.205011,-1.269271,-9.531059
47.097942,0.330262,-1.358459,-9.461175
47.131410,0.029480,-1.274359,-9.735471
47.164706,0.206358,-1.539676,-9.842017
47.197929,0.258433,-1.699495,-9.515346
47.231411,0.242422,-1.726880,-9.330687
47.264726,0.146351,-1.591902,-9.446211
47.298116,0.088289,-1.503762,-9.325300
47.331305,0.298089,-1.233208,-9.729485
47.364642,0.153534,-1.726431,-9.429601
47.397955,0.115075,-1.801701,-10.510322
47.431478,0.189747,-1.753516,-10.095063
47.464879,0.352110,-1.497327,-10.244706
47.497918,0.101159,-1.215101,-10.105837
47.531247,0.298837,-1.228868,-9.894691
47.564637,0.243020,-1.589208,-10.087281
47.598270,0.047287,-1.415622,-10.235428
47.631271,0.182714,-1.466950,-10.181706
47.664835,0.243319,-1.562422,-10.272988
47.698079,0.235239,-1.536534,-10.533666
47.731324,0.263072,-1.461712,-9.066717
47.764762,0.060605,-1.300248,-9.871496
47.798145,0.065693,-1.325088,-10.285558
47.831261,0.311407,-1.377164,-9.569218
47.864731,0.188550,-0.946043,-9.768243
47.898964,0.209650,-1.427294,-10.310848
47.931313,0.262923,-1.444803,-9.496491
47.964760,0.229702,-1.154196,-9.422119
48.010167,0.377250,-1.139681,-9.376028
48.031223,0.172239,-1.199089,-9.355677
48.064686,0.278486,-1.120077,-9.274421
48.097935,0.247958,-1.064560,-9.073899
48.131271,0.219676,-1.122023,-8.999676
48.164753,0.119864,-1.335264,-9.744898
48.198046,0.206058,-1.272713,-9.815231
48.231471,0.274894,-1.190110,-9.657058
48.264706,0.318739,-1.453931,-9.730982
48.298096,0.193488,-1.277053,-10.038498
48.331730,0.355103,-1.311022,-10.206248
48.364726,0.266215,-1.586066,-10.138160
48.397939,0.252747,-1.217046,-9.346848
48.431304,0.060007,-1.106909,-9.593011
48.464730,0.130489,-1.065757,-9.997496
48.498087,0.166403,-1.262986,-10.080099
48.531302,0.224315,-1.489696,-10.155369
48.564641,0.272799,-1.372675,-9.942726
48.598081,0.302428,-1.511693,-9.960085
48.631305,0.227008,-1.640685,-9.477786
48.664603,0.279683,-1.325088,-9.525821
48.697947,0.284920,-1.687823,-9.769739
48.731302,0.167750,-1.617940,-9.768692
48.764574,0.223267,-1.581876,-9.852043
48.797968,0.357048,-1.597289,-9.788145
48.831297,0.144405,-1.689170,-9.771235
48.864613,0.304972,-1.614049,-9.577747
48.897984,0.347172,-1.490294,-9.539588
48.931252,0.310509,-1.537881,-9.888107
48.964574,0.253645,-1.612103,-9.708535
48.997930,0.293300,-1.531596,-9.818822
49.033649,0.258733,-1.395720,-9.666785
49.064581,0.270255,-1.524413,-9.630721
49.097948,0.266664,-1.310423,-9.836929
49.131249,0.239878,-1.371328,-9.617103
49.164591,0.283424,-1.065158,-9.632367
49.197936,0.297041,-1.161080,-9.812387
49.231315,0.162063,-1.264184,-9.828698
49.264566,0.213690,-1.168262,-9.905166
49.297916,0.217581,-0.955919,-9.811489
49.331272,0.360640,-1.056330,-9.954997
49.364661,0.274894,-0.980161,-9.637155
49.398076,0.267262,-1.032985,-10.241114
49.431279,0.440848,-1.312818,-9.756570
49.464991,0.234640,-0.996173,-9.509360
49.497986,-0.105049,-1.137885,-9.785152
49.531321,0.145303,-1.256103,-9.821516
49.564916,0.275942,-1.580678,-9.628626
49.598080,0.159968,-1.189063,-9.644189
49.631387,0.092330,-1.219141,-9.935244
49.664723,0.443841,-1.321347,-9.785302
49.698148,-0.073774,-0.900102,-10.028472
49.731981,0.064795,-0.992881,-9.202892
49.764734,0.195733,-1.000513,-9.098590
49.797978,0.172239,-0.780388,-9.453843
49.831744,0.281478,-0.989589,-9.299711
49.864661,0.277588,-1.096584,-9.141239
49.898026,0.119714,-1.012933,-9.325599
49.931325,0.195284,-1.429838,-9.242397
49.964722,0.121211,-1.556436,-9.235065
49.997931,0.118517,-1.350079,-9.520434
50.031450,0.182714,-1.540424,-9.071804
50.064688,0.115824,-1.567660,-9.184635
50.098023,0.074971,-1.582474,-9.795478
50.131636,-0.051776,-1.735409,-9.446660
50.170080,-0.041152,-1.575291,-9.260953
50.197917,-0.148595,-1.524413,-9.638502
50.231322,-0.030378,-1.332271,-9.985375
50.264873,-0.115225,-1.342597,-9.358670
50.297993,-0.141712,-1.524113,-9.465365
50.331310,-0.109838,-1.366090,-9.046814
50.364738,0.006135,-1.362948,-9.499185
50.398051,-0.013318,-1.471589,-9.896187
50.431278,0.147099,-1.415622,-10.151179
50.464620,-0.031575,-1.052738,-9.523876
50.497971,0.000000,-1.202980,-9.857729
50.531348,-0.116273,-1.867245,-9.298214
50.564623,-0.168947,-1.179486,-9.716616
50.597971,-0.213690,-1.108705,-10.383574
50.632278,-0.156975,-1.621681,-9.814033
50.664680,0.043097,-1.542220,-9.827202
50.697986,-0.119565,-1.118581,-9.453095
50.731369,-0.246761,-1.422805,-9.390993
50.764665,-0.314101,-1.125315,-9.686837
50.798854,-0.191543,-1.029095,-9.772582
50.831241,0.012869,-1.548655,-9.832439
50.864609,0.030677,-1.145517,-9.867157
50.898044,-0.015563,-1.194450,-9.611118
50.931285,0.068088,-1.408290,-9.676811
50.964621,0.019005,-1.415772,-9.579393
50.997962,-0.023045,-1.217196,-9.218454
51.031446,0.077665,-1.300098,-9.683994
51.064710,-0.038907,-1.128457,-9.434090
51.097951,-0.012869,-1.096733,-9.397278
51.131328,0.075420,-1.248770,-9.618300
51.164858,-0.104451,-1.357112,-9.805055
51.199750,-0.269806,-1.185172,-9.325898
51.231379,-0.032772,-1.113643,-9.355228
51.264621,-0.038159,-1.417717,-9.782459
51.311144,-0.071230,-1.102719,-9.789941
51.331279,0.016760,-1.004104,-9.307642
51.364596,-0.147997,-1.255055,-9.172065
51.397974,-0.278785,-1.155543,-9.611267
51.431275,0.079460,-1.396019,-9.155006
51.464621,0.042199,-1.240690,-8.933235
51.498005,-0.059708,-0.994078,-9.630421
51.531318,-0.117021,-1.082667,-10.116312
51.564608,0.092479,-1.199388,-9.158298
51.597964,-0.178225,-1.270918,-10.533068
51.631294,-0.008829,-1.496280,-10.630036
51.664605,-0.287015,-1.493137,-9.378273
51.698135,-0.003591,-0.817050,-10.548481
51.731284,0.145154,-0.996173,-10.123495
51.764772,0.078563,-1.438218,-9.917736
51.798256,0.054919,-1.143272,-9.574455
51.831271,0.131237,-1.163773,-10.247250
51.864964,0.245714,-1.535786,-10.202955
51.897983,0.217282,-1.473384,-10.255330
51.931494,-0.022746,-1.172901,-9.749537
51.964659,-0.023793,-1.080272,-9.485118
51.997957,-0.007781,-0.997670,-9.508014
52.031232,-0.023644,-0.967591,-9.270231
52.064783,-0.095023,-0.965945,-9.229678
52.098133,-0.086943,-1.075783,-8.932786
52.131272,-0.208453,-1.013831,-9.195260
52.164720,-0.069135,-0.882145,-9.167426
52.198074,0.061653,-0.965047,-9.182690
52.231341,-0.264419,-1.144918,-9.392190
52.264757,-0.064795,-1.074287,-9.633265
52.298163,0.324576,-1.421159,-9.443218
52.331385,-0.104002,-0.944696,-9.934496
52.365170,-0.326671,-1.168113,-10.190834
52.405879,0.041900,-1.758454,-9.673968
52.431290,-0.036064,-1.366090,-9.928061
52.464733,-0.191693,-1.182030,-10.942341
52.497973,-0.167151,-1.651160,-10.744064
52.531274,0.018855,-1.491641,-10.275233
52.564750,-0.036363,-1.797361,-10.267003
52.597983,-0.169695,-0.976720,-10.445377
52.631553,-0.114178,-1.574393,-10.112721
52.664676,0.031425,-1.330027,-9.796376
52.697963,0.084399,-1.399910,-9.671424
52.731385,0.038159,-1.458719,-9.958140
52.764759,-0.326521,-1.509299,-9.641046
52.797942,-0.039955,-1.120227,-9.485417
52.831479,0.070931,-1.308927,-9.705692
52.864699,0.052076,-1.407242,-9.541234
52.898038,0.075270,-1.485954,-9.348345
52.931474,0.050579,-1.493736,-9.602588
52.964749,-0.033819,-1.305485,-9.625034
52.998056,-0.178674,-1.470691,-9.672770
53.031313,-0.035615,-1.230664,-9.511156
53.064726,-0.044294,-1.467698,-9.319463
53.098025,0.025888,-1.323742,-9.374382
53.131519,-0.121510,-1.179635,-9.552009
53.164665,0.032024,-1.544614,-10.298428
53.197945,-0.085446,-1.594296,-10.058849
53.231206,0.163859,-1.496729,-9.495144
53.264592,-0.053123,-1.300397,-9.713174
53.297993,-0.071380,-1.371627,-10.258922
53.331396,0.077964,-1.059771,-9.951855
53.364678,-0.049831,-1.038372,-9.888406
53.399449,-0.133631,-1.092244,-9.836031
53.431211,-0.044145,-1.111847,-9.895289
53.464613,0.029929,-1.319701,-9.655412
53.498037,-0.128543,-1.154944,-10.349605
53.531271,-0.101458,-0.638078,-10.365767
53.564604,-0.014216,-0.880948,-10.234530
53.597878,-0.161016,-0.700928,-9.536595
53.631257,0.090534,-0.849224,-9.279509
53.664851,0.104151,-0.968190,-9.116248
53.697988,0.122258,-1.119629,-9.331734
53.731220,-0.127496,-1.052140,-9.270979
53.764764,-0.077964,-1.190859,-9.197205
53.798064,-0.098465,-1.266279,-9.385606
53.831301,-0.121510,-1.264184,-9.913097
53.864676,0.044893,-1.446748,-9.435586
53.897952,-0.086194,-1.008294,-9.677709
53.931337,-0.071529,-1.378511,-10.260867
53.964638,-0.111334,-1.167365,-10.159260
53.997942,0.045940,-1.558082,-9.964425
54.031501,0.101159,-0.987494,-10.113768
54.064578,-0.049681,-1.171255,-9.945121
54.097945,0.067190,-1.349181,-9.859824
54.131487,-0.071380,-1.205224,-9.992557
54.164787,-0.106995,-1.244131,-10.191433
54.197951,-0.341036,-1.322544,-9.743402
54.231320,-0.109090,-1.107208,-9.834385
54.264756,0.044444,-1.458271,-10.400933
54.298237,0.123156,-1.595792,-9.861321
54.331250,-0.046090,-1.288126,-9.308240
54.364615,-0.254094,-1.309525,-9.930456
54.398021,-0.166702,-1.221236,-9.362561
54.431293,-0.137522,-1.296955,-9.352235
54.464606,-0.020501,-1.336760,-9.693720
54.497910,-0.205011,-1.405447,-9.649426
54.533798,-0.053273,-1.382252,-9.533752
54.564558,-0.013169,-1.400957,-9.464019
54.597897,-0.042199,-1.332421,-9.987170
54.633942,0.081555,-1.359207,-9.808497
54.664560,0.044444,-1.248920,-9.778119
54.697897,0.041601,-1.446149,-10.179162
54.731225,-0.064646,-1.254606,-10.052115
54.764603,-0.244666,-1.201334,-9.782908
54.798048,-0.016461,-1.249519,-9.931503
54.831389,0.112831,-1.265381,-9.838126
54.864646,-0.153384,-1.373124,-9.644937
54.897956,-0.212493,-1.222134,-9.834534
54.931894,-0.131237,-0.886335,-9.710929
54.964657,-0.038009,-0.793407,-9.837827
54.997949,-0.016760,-0.972679,-10.412306
55.032188,0.124054,-0.956518,-9.482125
55.064685,0.126748,-1.017422,-9.851893
55.097936,-0.060755,-1.086857,-10.136664
55.131247,0.025739,-1.586515,-9.506517
55.164743,-0.027534,-1.025952,-9.585080
55.197910,-0.180619,-1.095237,-9.577448
55.231413,0.237034,-1.285732,-9.204388
55.264617,0.058959,-1.465453,-9.518788
55.298014,-0.191094,-1.119629,-9.321708
55.331319,-0.262623,-1.497028,-9.219352
55.364764,0.004639,-1.251464,-9.382313
55.397940,-0.105648,-1.263435,-9.404161
55.431410,-0.031874,-1.145217,-9.234915
55.464807,0.000000,-1.213754,-9.343257
55.498029,-0.238681,-1.015776,-10.015303
55.531274,0.018406,-1.310723,-10.181257
55.564564,0.090684,-1.345290,-9.200797
55.597896,0.203814,-1.453632,-9.956643
55.631315,-0.190047,-1.254307,-10.417094
55.664589,0.041002,-1.358010,-10.505234
55.697976,-0.034717,-1.296506,-10.675079
55.731225,0.019154,-1.351725,-10.379983
55.764627,0.270554,-1.762944,-10.139357
55.797936,0.153384,-1.622728,-10.420536
55.831230,-0.149194,-1.037026,-10.586939
55.864655,-0.257835,-1.373423,-10.659666
55.898038,-0.061803,-1.727628,-9.747442
55.931294,-0.188550,-1.331523,-10.222708
55.964670,-0.014066,-1.598636,-9.712875
55.997981,-0.142011,-1.615845,-9.371689
56.031265,-0.231947,-1.314464,-9.100386
56.064727,0.290607,-1.301744,-8.767281
56.097966,-0.033370,-1.593697,-9.064173
56.131317,-0.025290,-1.427594,-9.117745
56.164673,0.008829,-1.114391,-8.697697
56.197996,0.001646,-1.176194,-9.421520
56.231318,-0.319488,-0.949185,-10.112571
56.264859,-0.172838,-1.048997,-9.881522
56.298018,0.185857,-0.909679,-9.685640
56.331302,-0.119265,-0.887383,-10.794793
56.364682,-0.046240,-1.084313,-10.184849
56.397951,0.118667,-1.247573,-9.824957
56.431242,-0.254393,-1.069049,-10.073664
56.464614,-0.193788,-1.193403,-10.046579
56.498009,0.027834,-1.363247,-9.793981
56.531317,0.051328,-1.485057,-10.131127
56.564607,-0.467185,-1.560327,-9.688782
56.598016,-0.191992,-1.795117,-9.562334
56.631235,0.030677,-1.575740,-10.071270
56.664646,-0.123156,-1.618688,-9.821516
56.698158,0.054021,-1.880264,-9.436634
56.738192,-0.097418,-1.846444,-9.301357
56.764626,-0.110287,-1.522318,-9.628177
56.797982,-0.492924,-1.455278,-9.616804
56.831834,-0.073774,-1.886998,-10.069025
56.865555,0.022297,-1.698896,-9.682497
56.897925,0.180020,-1.137137,-8.946254
56.931217,-0.116721,-1.126512,-10.889368
56.964651,0.082304,-1.209265,-10.055856
56.997903,0.168348,-1.210761,-8.934133
57.031280,0.267262,-0.937214,-9.394883
57.064583,0.011672,-1.051391,-9.174459
57.097945,0.194835,-1.006947,-8.828934
57.131291,0.081705,-0.923746,-9.224440
57.164764,-0.388174,-1.244431,-9.534650
57.198173,0.267861,-1.228868,-9.202742
57.231556,0.024541,-1.450489,-9.501280
57.264713,-0.054470,-1.266129,-9.800117
57.298104,-0.116572,-1.598187,-10.200112
57.331268,-0.123605,-1.749925,-10.024132
57.364708,-0.119415,-1.814720,-10.026077
57.397938,-0.029180,-1.525311,-11.199128
57.431406,0.120463,-1.776561,-11.174737
57.464657,-0.116572,-2.183590,-9.949161
57.497917,-0.411368,-1.627666,-10.095661
57.531281,-0.019154,-1.983667,-10.662359
57.564709,0.257536,-1.698148,-10.192181
57.598042,0.304523,-1.104664,-9.641794
57.631242,0.265766,-1.037026,-10.059298
57.664592,-0.398350,-0.993330,-10.507030
57.699164,0.009577,-0.547544,-9.917586
57.731345,0.524199,-0.579268,-9.153360
57.764541,-0.005238,-0.937663,-10.357237
57.797919,0.021100,-0.654389,-9.763304
57.831272,0.331010,-1.027897,-9.039631
57.868610,0.227457,-0.864188,-9.928660
57.897955,-0.007931,-1.242336,-9.479282
57.931342,0.024093,-1.391829,-9.331585
57.964676,0.078413,-1.363098,-9.235065
57.997929,0.061503,-1.148510,-9.597799
58.031261,-0.176579,-1.276005,-10.152526
58.064848,-0.073624,-1.368036,-10.008719
58.097886,0.066142,-1.443755,-10.126488
58.131313,0.292552,-1.097930,-8.597586
58.164596,-0.160417,-1.042413,-10.543543
58.197993,-0.070482,-1.180234,-10.438044
58.231446,0.039655,-1.017123,-10.017249
58.265618,-0.049981,-1.075334,-10.477999
58.297943,-0.145004,-1.189212,-10.763817
58.331220,0.256937,-1.955235,-10.157763
58.364646,0.123904,-1.326585,-10.020092
58.398077,-0.079909,-0.952178,-10.086982
58.431322,0.097268,-0.966693,-10.923785
58.464754,-0.061503,-0.933473,-11.082856
58.497960,0.584655,-0.563106,-9.714222
58.531352,0.200821,-0.535422,-9.547220
58.564654,-0.136774,-0.768865,-12.097884
58.598504,0.256937,-0.753153,-8.655348
58.631763,0.447432,-0.851618,-9.274271
58.664593,0.342233,-0.478109,-10.561650
58.697986,0.017808,-1.165120,-8.650111
58.731272,0.232246,-0.775001,-8.702934
58.764735,-0.072427,-0.702723,-9.194961
58.797933,0.501902,-0.891872,-8.595491
58.831332,0.172089,-0.841891,-8.718946
58.864821,-0.013618,-0.755697,-9.473596
58.898080,-0.030677,-0.901748,-9.265592
58.934588,0.078114,-0.457758,-9.771385
58.964601,0.099064,-0.495468,-10.065583
58.998049,0.181517,-1.310872,-9.262898
59.031235,0.244367,-1.161529,-9.795178
59.064729,-0.074223,-0.784129,-10.125291
59.098021,-0.080358,-1.154944,-10.427869
59.131344,0.367523,-1.353221,-10.119305
59.164654,0.469131,-0.883791,-9.641495
59.198029,0.321732,-1.075484,-10.244107
59.231245,0.194237,-1.064710,-10.661611
59.264726,0.118218,-0.777694,-10.378337
59.297940,0.270854,-0.523601,-9.160692
59.331280,-0.089187,-0.942002,-12.090252
59.364642,0.065693,-1.044807,-11.782886
59.398015,0.267562,-0.946342,-9.525372
59.431281,0.025739,-0.819894,-9.542880
59.465339,-0.058061,-1.391081,-9.613512
59.497996,0.186305,-1.203878,-9.562783
59.531226,0.104451,-1.320749,-8.937575
59.564647,-0.327269,-1.143422,-9.143783
59.598412,0.077665,-1.491342,-9.803708
59.631276,-0.062102,-1.403800,-8.371475
59.664879,0.022746,-1.047800,-8.974237
59.697941,0.324426,-1.651609,-9.602887
59.731240,0.232994,-1.402454,-9.055344
59.764587,0.203215,-1.243982,-8.660137
59.797959,0.181667,-1.260742,-10.302767
59.831263,0.238830,-1.271366,-10.442683
59.864703,0.388922,-1.136089,-9.812238
59.897928,0.239279,-1.514836,-9.791288
59.931314,0.018855,-1.084762,-8.631405
59.964661,-0.243469,-0.924943,-9.869401
59.997951,0.080658,-1.324639,-10.428467
60.031327,0.241075,-1.552695,-9.798471
60.069976,-0.142161,-1.138932,-9.793682
60.097919,0.072726,-1.276903,-10.760824
60.131323,0.069135,-1.584868,-10.190685
60.164626,0.429326,-1.243234,-9.867157
60.198022,0.509834,-1.102270,-9.676212
60.231275,-0.218778,-1.650412,-10.202955
60.264637,-0.401043,-1.186968,-9.510258
60.297987,0.213690,-1.010090,-9.099189
60.331298,0.210697,-1.318354,-9.640597
60.364606,0.012121,-1.459168,-9.676661
60.397947,-0.218479,-0.810017,-9.394435
60.431605,-0.158472,-1.613600,-10.104490
60.464613,0.052525,-0.998867,-9.059683
60.498054,0.385630,-1.613450,-8.857366
60.531298,0.160567,-1.845247,-9.538241
60.564650,0.022147,-1.430587,-9.649276
60.598032,0.024691,-1.378361,-9.698359
60.631302,0.022297,-1.589507,-9.946617
60.664569,0.111035,-1.505857,-9.961731
60.697944,0.405832,-1.430287,-10.943089
60.731230,0.345675,-1.400359,-9.964574
60.765228,-0.241224,-1.162426,-10.533217
60.797934,0.382936,-0.932575,-9.241200
60.831230,0.207704,-0.625508,-9.723499
60.864670,0.222669,-1.214203,-10.705756
60.898156,0.020052,-0.780089,-9.925817
60.931488,-0.064197,-1.092842,-9.302703
60.964651,0.064346,-0.965646,-9.232820
60.997916,0.375005,-1.735559,-9.575652
61.031311,0.369169,-1.634400,-9.151863
61.064795,-0.004040,-1.609859,-8.981121
61.098072,0.135577,-1.386592,-9.825855
61.132997,0.374856,-1.397067,-9.245839
61.164580,-0.024990,-1.669417,-9.916838
61.197944,0.370067,-1.528752,-9.902622
61.231340,0.098764,-1.522318,-9.565327
61.264620,0.059109,-1.529501,-10.037750
61.297910,0.011971,-1.664329,-9.832888
61.331256,0.314101,-1.356064,-9.599745
61.364763,0.482299,-1.303390,-9.730084
61.398031,-0.045641,-1.493437,-10.521096
61.431343,-0.125550,-1.282290,-9.740708
61.464737,0.005537,-1.805592,-10.485032
61.498018,0.124353,-1.832827,-10.852855
61.531272,0.249305,-1.881910,-10.028172
61.564651,0.023943,-1.790179,-9.365703
61.597978,-0.124802,-2.139744,-10.304563
61.631589,-0.367972,-1.646821,-9.137198
61.664601,0.172389,-1.932639,-9.072104
61.698027,0.353756,-2.346401,-8.937126
61.731268,-0.210847,-2.119094,-8.920815
61.764595,-0.491128,-1.584719,-8.214949
61.798103,0.169097,-2.307494,-9.890950
61.831261,0.321882,-2.236414,-9.110861
61.864635,0.139467,-1.651908,-9.283998
61.897933,-0.202018,-1.882359,-8.902409
61.931478,-0.071679,-1.804095,-9.468957
61.964637,0.181068,-1.794518,-9.812088
61.997954,0.123306,-1.948351,-10.326560
62.031325,0.172538,-2.458933,-10.356788
62.064750,-0.298837,-2.007610,-10.167640
62.097913,-0.265317,-1.760400,-10.680466
62.131377,0.194536,-2.429304,-10.499847
62.164658,0.462696,-2.316772,-9.960384
62.197953,0.278186,-1.917076,-9.144680
62.231286,-0.156826,-1.840608,-9.302703
62.274594,0.256189,-1.274659,-9.294174
62.297974,0.483347,-1.231113,-9.509510
62.331286,-0.212044,-2.180747,-11.266169
62.364596,-0.172538,-1.461413,-10.001985
62.397914,-0.292402,-1.724785,-10.792698
62.431244,0.145453,-0.949933,-9.473895
62.464712,0.240626,-1.673756,-10.754539
62.497896,0.199624,-0.990786,-9.815530
62.531289,-0.009128,-1.689768,-10.150131
62.564564,-0.142610,-1.348582,-9.437981
62.597887,0.338792,-1.879366,-9.352385
62.631259,0.393860,-1.866347,-9.388898
62.664828,0.337594,-1.343345,-10.417244
62.697942,-0.063449,-1.346936,-9.088564
62.731198,0.130189,-2.238060,-9.212768
62.764582,0.169994,-1.253709,-10.255480
62.797916,0.235538,-1.251464,-10.237822
62.831275,0.003442,-1.572149,-10.356938
62.864581,-0.186006,-1.772521,-10.362924
62.897997,-0.165056,-1.581876,-9.750734
62.931335,0.066591,-1.479221,-9.996747
62.964640,0.463743,-1.428940,-10.085336
62.997948,0.140964,-1.313416,-9.839024
63.031259,-0.398798,-1.526657,-9.173861
63.064607,-0.310659,-1.786737,-10.186644
63.098069,-0.047736,-1.418914,-9.580740
63.131308,0.007183,-1.527406,-8.460214
63.164610,-0.105498,-1.311770,-8.749473
63.198024,-0.312305,-1.634849,-9.335625
63.231383,-0.094275,-1.709671,-9.121187
63.264638,0.181816,-1.994740,-8.943860
63.297986,0.404485,-1.244580,-10.430113
63.332952,0.189747,-1.656996,-9.034992
63.364610,0.014366,-0.979563,-9.017933
63.398065,0.279084,-0.874663,-9.494845
63.431327,0.276391,-1.091945,-10.429216
63.464580,-0.025739,-1.207768,-9.224590
63.497931,-0.092479,-0.899803,-8.832675
63.531381,-0.205759,-1.257450,-9.872394
63.564800,0.308414,-1.684381,-10.116761
63.597972,0.329813,-1.655350,-9.538391
63.631272,0.157424,-1.691714,-9.566973
63.664880,-0.054021,-1.745136,-9.888256
63.698023,-0.119265,-1.632156,-10.176768
63.731271,0.157125,-1.722091,-10.179910
63.764693,0.235089,-1.568857,-9.781262
63.797998,0.132584,-1.578583,-10.033410
63.831272,-0.129740,-1.417568,-10.621207
63.864636,0.372312,-1.230813,-10.307107
63.898026,0.471375,-1.406494,-9.824359
63.931318,-0.011523,-1.093890,-10.371603
63.964955,0.066591,-1.335264,-9.768841
63.998064,-0.035166,-1.089401,-9.340264
64.031970,0.176728,-1.059771,-9.653766
64.064607,0.143508,-1.577087,-9.046964
64.097993,-0.012271,-1.182479,-9.048161
64.131403,-0.338193,-1.089401,-9.272775
64.164626,-0.087691,-1.343345,-9.760461
64.198070,-0.089935,-1.282290,-8.823996
64.231261,0.008829,-1.201633,-9.370342
64.264641,-0.139617,-1.354867,-10.254881
64.298024,-0.337594,-1.727029,-9.464617
64.331308,-0.293450,-1.521869,-9.234616
64.364660,-0.253196,-1.592800,-10.349456
64.397934,-0.026188,-1.725084,-9.962180
64.431285,-0.144106,-1.610757,-9.335026
64.464644,-0.544551,-1.790029,-10.390608
64.497879,-0.157275,-1.969600,-10.561201
64.531292,0.094125,-1.915579,-10.418591
64.564731,0.326072,-1.888494,-10.312344
64.598058,-0.195434,-1.902411,-9.919083
64.631310,-0.405832,-1.809034,-10.030567
64.664603,-0.040104,-1.802300,-9.780364
64.698014,-0.014815,-1.698747,-9.520584
64.731421,-0.360939,-1.266129,-9.718412
64.764875,-0.249156,-1.245179,-9.927762
64.797941,-0.307516,-1.196844,-9.747742
64.831579,-0.159669,-0.954123,-10.076806
64.864722,-0.042948,-1.000513,-9.462971
64.897939,-0.262324,-1.209863,-9.321708
64.931467,-0.479755,-1.003206,-9.661996
64.964616,-0.386378,-1.031788,-9.629973
64.997970,-0.115225,-1.021163,-9.342359
65.031315,-0.298238,-1.343195,-9.347596
65.064649,-0.467485,-1.296207,-9.235963
65.098051,-0.517166,-1.266129,-9.524025
65.131556,-0.103553,-1.379259,-9.750285
65.164719,-0.024541,-1.564517,-9.483173
65.197905,-0.391167,-1.344392,-9.854886
65.231255,-0.536021,-1.350528,-9.713773
65.264640,-0.542905,-1.402304,-9.789791
65.297984,-0.324276,-1.613899,-9.946916
65.331248,-0.455962,-1.751122,-10.124842
65.364689,-0.703023,-1.392577,-9.867007
65.398437,-0.637030,-1.406644,-10.271791
65.431272,-0.610992,-1.389884,-10.185896
65.464615,-0.523301,-1.524862,-9.894541
65.497988,-0.647655,-1.169310,-9.746694
65.531323,-0.760186,-1.242336,-9.955147
65.564983,-0.797298,-1.141027,-9.879128
65.597913,-0.751806,-1.167664,-9.775276
65.631323,-0.584356,-1.215550,-9.337121
65.665144,-0.854312,-1.051242,-9.859525
65.698019,-0.854761,-1.166317,-9.726642
65.731293,-0.854312,-1.214652,-9.604084
65.764662,-0.670700,-1.267326,-9.633265
65.797965,-0.624759,-1.498375,-9.577897
65.831454,-0.692847,-1.395121,-9.354031
65.864648,-0.856706,-1.325837,-9.621144
65.898010,-0.834259,-1.442259,-9.528814
65.931503,-0.533776,-1.555538,-9.719160
65.964681,-0.606802,-1.442408,-9.486016
65.997897,-0.978515,-1.439565,-10.180958
66.031339,-0.922100,-1.235452,-10.142649
66.065306,-0.386528,-1.298901,-9.790091
66.097907,-0.481401,-1.243533,-9.686987
66.131430,-0.672645,-1.323442,-10.129481
66.164734,-0.614434,-0.938860,-10.024282
66.197908,-0.627752,-1.019517,-9.793383
66.231358,-0.475266,-1.106460,-9.638652
66.265005,-0.555026,-1.221984,-9.622191
66.297967,-0.792509,-0.953375,-9.861620
66.331449,-0.857155,-1.096135,-10.039994
66.364747,-0.689405,-1.292616,-9.840520
66.397937,-0.648702,-1.340801,-10.100300
66.431433,-0.677583,-1.404549,-10.036104
66.464898,-0.701825,-1.617491,-9.613213
66.498059,-0.902048,-1.407691,-9.740708
66.531331,-0.748813,-1.457971,-9.956793
66.564772,-0.507589,-1.409487,-9.758965
66.597928,-0.489781,-1.297255,-9.605431
66.631313,-0.725469,-1.357112,-9.631768
66.672198,-0.666659,-1.157189,-9.542731
66.697957,-0.706764,-0.842041,-9.111909
66.731327,-0.577472,-0.841293,-9.506966
66.764860,-0.724870,-1.050045,-9.516394
66.797978,-0.666061,-0.866882,-9.428703
66.831313,-0.847877,-0.770212,-9.719160
66.865093,-0.726068,-0.952178,-9.836181
66.897987,-0.518363,-1.068451,-9.534351
66.931403,-0.702274,-1.148809,-9.582236
66.964608,-0.726068,-1.170657,-9.842017
66.998200,-0.822288,-1.337060,-10.438793
67.032156,-0.723524,-1.414275,-10.092220
67.064621,-0.696139,-1.434178,-9.943923
67.098072,-0.705118,-1.490144,-10.489522
67.132146,-0.936615,-1.656098,-10.322819
67.164700,-0.847278,-1.491791,-10.080847
67.198014,-0.654239,-1.435226,-10.044484
67.231769,-0.650947,-1.369383,-9.761509
67.264679,-0.754200,-1.392278,-9.704495
67.298084,-0.798195,-1.371478,-9.569517
67.332226,-0.936615,-1.158236,-9.692972
67.364688,-0.746419,-1.089550,-9.478833
67.397942,-0.645410,-1.091795,-9.324701
67.432268,-0.713348,-1.169011,-9.203341
67.464716,-0.936765,-0.814806,-9.495892
67.498050,-0.725319,-0.980760,-9.872394
67.531329,-0.561610,-1.121574,-9.595704
67.564838,-0.637928,-1.352772,-9.275468
67.598102,-0.989888,-0.988691,-10.107782
67.631236,-0.924195,-1.356214,-10.141751
67.664708,-0.881846,-1.277352,-9.574305
67.699387,-0.732502,-1.229616,-9.708086
67.731270,-0.763927,-1.289473,-10.058251
67.764690,-0.896960,-1.449142,-9.966819
67.803318,-0.959361,-1.283488,-9.891099
67.831220,-0.928684,-1.148510,-9.993306
67.864598,-0.926140,-1.234704,-10.121550
67.898964,-0.744623,-1.181281,-9.796974
67.931320,-0.726217,-1.097631,-9.842017
67.964647,-0.898456,-0.918957,-9.858477
67.998167,-0.855209,-1.062465,-9.906363
68.031244,-0.821540,-0.955470,-9.757468
68.064636,-0.778742,-0.994078,-9.579393
68.097997,-0.784728,-1.133994,-9.840221
68.131229,-0.750160,-1.039719,-9.675464
68.164792,-0.881996,-1.003206,-9.136749
68.198001,-0.936466,-0.771858,-9.262749
68.231656,-0.708559,-1.008294,-9.638203
68.264568,-0.687160,-1.242934,-9.709732
68.298063,-0.863589,-0.958164,-9.049807
68.331370,-0.950233,-1.012634,-9.453992
68.365125,-0.750459,-1.332720,-9.846506
68.397932,-0.622365,-1.381354,-9.746395
68.431504,-0.923447,-1.321347,-9.513700
68.466404,-1.005451,-1.499123,-9.861620
68.498837,-1.100025,-1.431933,-9.701053
68.531287,-0.690153,-1.397815,-9.767045
68.564634,-0.833212,-1.487451,-9.881073
68.597979,-0.917311,-1.813074,-9.898582
68.631934,-0.845932,-1.376416,-10.406619
68.664640,-0.880499,-1.432981,-10.486080
68.698002,-0.767219,-1.135341,-10.254732
68.731291,-0.770661,-0.993629,-10.147737
68.764729,-0.707063,-1.192056,-9.931054
68.798649,-0.584356,-1.245179,-9.469256
68.831368,-0.712151,-0.932575,-9.433641
68.864710,-1.063063,-1.230514,-9.726492
68.898191,-0.950682,-1.345440,-9.412990
68.931313,-0.825131,-1.276604,-9.531208
68.964675,-0.755996,-1.181880,-9.372287
68.999114,-1.036577,-1.290072,-9.344454
69.031810,-1.049446,-1.401855,-9.419874
69.064775,-0.955321,-1.405895,-9.451598
69.098007,-0.825580,-1.291119,-9.398026
69.131316,-0.897409,-1.364893,-9.814482
69.164574,-0.962952,-1.367138,-9.689680
69.197980,-0.939458,-1.440613,-9.577448
69.231359,-0.950083,-1.188015,-9.818074
69.264911,-0.855658,-1.289922,-9.795627
69.298349,-0.865834,-1.395869,-9.877931
69.331424,-1.091047,-1.142374,-9.840371
69.364613,-0.923147,-1.138184,-10.218219
69.398704,-0.946342,-1.376715,-9.630721
69.431515,-0.984501,-0.926140,-9.702849
69.464661,-1.033285,-1.017722,-9.946018
69.498001,-0.861195,-1.209564,-9.390843
69.531406,-0.883941,-1.082218,-9.464168
69.564903,-0.961456,-1.046752,-9.594806
69.598004,-0.953674,-1.344692,-9.497987
69.631441,-0.878853,-1.274659,-9.390095
69.664941,-0.828723,-1.283188,-9.345801
69.698137,-0.916713,-1.385245,-9.585828
69.731273,-0.980610,-1.449591,-9.667533
69.764677,-0.986596,-1.423104,-9.864463
69.797903,-0.886934,-1.447945,-9.787996
69.831566,-0.930929,-1.501218,-10.127236
69.864890,-0.866732,-1.569605,-10.168986
69.897999,-0.963850,-1.545213,-9.857579
69.931830,-0.956518,-1.486254,-9.854587
69.967203,-1.068600,-1.247424,-9.962330
69.997940,-0.985698,-1.269271,-10.128882
70.031411,-0.859100,-1.342297,-9.895888
70.064557,-0.884689,-1.414874,-9.793981
70.097941,-0.969387,-1.115439,-9.871347
70.131259,-0.955021,-1.036427,-9.877482
70.165522,-0.882145,-1.168113,-9.753578
70.198232,-0.839946,-1.091496,-9.320062
70.231859,-0.903993,-1.036427,-9.183588
70.264662,-0.906687,-1.199388,-9.437831
70.298263,-0.910577,-1.156441,-9.432743
70.331331,-1.039270,-1.147163,-9.532555
70.364645,-0.964150,-1.268374,-9.691775
70.398028,-0.968938,-1.462161,-9.537344
70.431952,-0.825879,-1.388687,-9.405658
70.464655,-0.908931,-1.591303,-9.811340
70.498851,-1.048548,-1.502415,-9.957990
70.531275,-0.946941,-1.644576,-9.983429
70.564628,-0.955021,-1.499422,-9.793832
70.598282,-0.947689,-1.478323,-10.149832
70.631312,-0.817200,-1.422057,-10.335389
70.664653,-0.911924,-1.384945,-9.930306
70.698356,-0.943798,-1.234255,-9.914145
70.731296,-0.903095,-1.377314,-9.927612
70.764673,-0.816602,-1.253260,-9.821815
70.798298,-0.822737,-1.206870,-9.780663
70.831293,-0.779789,-1.117534,-9.988966
70.864622,-1.080721,-1.355167,-9.859226
70.898145,-0.876309,-1.147013,-9.762855
70.931470,-0.816602,-1.269870,-9.623089
70.964567,-0.654987,-1.221835,-9.487512
70.998130,-0.603660,-1.476976,-9.398176
71.035500,-0.768417,-1.398114,-9.895289
71.064681,-0.819744,-1.403202,-9.977743
71.097963,-0.811963,-1.363696,-9.391292
71.131292,-0.925093,-1.406195,-9.551410
71.164728,-1.011437,-1.159882,-9.312879
71.198279,-0.917012,-1.388088,-9.250777
71.231399,-0.684168,-1.535037,-9.758665
71.264826,-0.890974,-1.425349,-9.647032
71.298161,-0.917760,-1.352922,-9.778568
71.331279,-0.822737,-1.434178,-9.704794
71.365326,-0.800889,-1.426845,-9.857430
71.398195,-0.870174,-1.434477,-9.828549
71.431354,-0.868079,-1.209414,-9.966968
71.465198,-0.901599,-1.255055,-10.268499
71.498052,-0.849822,-1.339304,-10.163150
71.531336,-0.819145,-1.335414,-9.890950
71.565326,-0.855209,-1.024605,-9.963527
71.597933,-0.966843,-1.137137,-10.140554
71.631230,-0.924344,-1.333019,-9.947365
71.664707,-1.024605,-1.233208,-9.619498
71.697939,-0.901000,-0.965496,-9.938836
71.731237,-0.861494,-1.265530,-10.042389
71.764795,-0.737889,-1.098230,-9.565177
71.797962,-0.780538,-1.068151,-9.729934
71.831259,-0.879302,-1.375069,-9.232820
71.864939,-0.842639,-1.302193,-9.082878
71.897961,-0.869874,-1.187566,-9.454142
71.931335,-0.943499,-1.454829,-9.883468
71.965000,-1.052588,-1.206122,-9.635210
71.998595,-0.959660,-1.426097,-9.620994
72.031262,-0.908782,-1.544914,-9.694618
72.065052,-1.049147,-1.320000,-9.797872
72.097913,-1.025353,-1.415922,-9.922525
72.131301,-0.991235,-1.573645,-9.447857
72.164619,-1.108405,-1.421608,-9.600044
72.204361,-1.014729,-1.496130,-9.756870
72.231260,-0.849523,-1.576339,-9.855335
72.264954,-0.773355,-1.637692,-9.975348
72.297962,-0.864637,-1.552097,-10.168089
72.331313,-0.880798,-1.363397,-9.941828
72.364616,-0.815105,-1.440912,-9.777072
72.398189,-0.794604,-1.398114,-9.688782
72.431391,-0.830369,-1.246077,-10.199214
72.464812,-0.815704,-1.445701,-10.077106
72.498372,-0.925991,-1.196844,-9.846057
72.531839,-0.905938,-1.271366,-9.641645
72.564717,-0.881247,-1.295309,-9.557994
72.598389,-0.794005,-1.068451,-9.734274
72.631866,-0.805678,-1.338855,-9.421071
72.664699,-0.731904,-1.444204,-9.374682
72.698233,-0.832015,-1.014430,-9.274720
72.731556,-0.898456,-1.230963,-9.767494
72.764821,-0.925242,-1.353221,-9.819421
72.800384,-0.764975,-1.317457,-9.965472
72.831343,-0.876908,-1.208666,-10.039845
72.864769,-0.848476,-1.587562,-9.820019
72.898122,-0.811364,-1.497627,-9.708685
72.931260,-0.925991,-1.488199,-9.694918
72.964754,-0.944546,-1.667771,-9.836480
72.999501,-0.933622,-1.541921,-9.848451
73.031355,-0.858053,-1.454829,-9.796525
73.064668,-0.924195,-1.350977,-9.876285
73.097944,-0.809718,-1.528303,-9.952902
73.131264,-0.779191,-1.576937,-9.925667
73.164608,-0.712899,-1.387489,-9.844561
73.198303,-0.817499,-1.442408,-10.060046
73.235184,-0.629847,-1.212108,-9.884814
73.264671,-0.769913,-1.134593,-10.158212
73.298600,-0.914767,-1.287977,-10.110476
73.331283,-0.780837,-1.317157,-10.089676
73.364707,-0.773205,-1.243982,-9.473745
73.398024,-0.905340,-1.207768,-9.610968
73.431770,-0.924644,-1.296656,-9.640298
73.464640,-0.879003,-1.254457,-9.433042
73.498196,-0.846979,-1.297404,-9.296269
73.531858,-0.783231,-1.295908,-9.171766
73.564603,-0.816003,-1.265231,-9.069111
73.597928,-0.817350,-1.188165,-9.452346
73.631241,-0.823784,-1.330775,-9.744150
73.665038,-0.752554,-1.520372,-9.784703
73.697905,-0.671448,-1.690965,-9.492301
73.731448,-0.640023,-1.501218,-9.950059
73.765544,-0.725768,-1.438218,-9.930306
73.799274,-0.656783,-1.631258,-10.069025
73.831441,-0.652743,-1.560926,-9.939434
73.864567,-0.686113,-1.427145,-9.639550
73.898090,-0.798794,-1.485506,-10.011263
73.931263,-0.679379,-1.617042,-9.720207
73.964576,-0.735645,-1.466052,-9.960235
73.997958,-0.805378,-1.362649,-9.903670
74.031757,-0.788020,-1.576937,-9.664091
74.065265,-0.761683,-1.349480,-9.682946
74.097945,-0.740733,-1.369981,-9.658405
74.131308,-0.810317,-1.398114,-9.767195
74.164995,-0.705866,-1.230963,-10.059897
74.197943,-0.685215,-1.373872,-9.472698
74.231275,-0.739685,-1.278549,-9.336672
74.264841,-0.689255,-1.375069,-9.493947
74.298303,-0.614135,-1.215849,-9.610369
74.332812,-0.676985,-1.261191,-9.651671
74.367774,-0.766022,-1.212856,-9.793832
74.397919,-0.698234,-1.277801,-9.615457
74.431791,-0.686113,-1.402154,-9.730682
74.464604,-0.731904,-1.316409,-9.635659
74.497925,-0.729060,-1.266877,-9.843663
74.531244,-0.613536,-1.311171,-9.878978
74.564529,-0.760785,-1.260143,-9.686238
74.599327,-0.713049,-1.366390,-9.758067
74.631541,-0.748215,-1.259994,-9.880774
74.664618,-0.755547,-1.227671,-9.735172
74.698265,-0.792060,-1.241588,-9.587175
74.731251,-0.777545,-1.215250,-9.979389
74.764598,-0.834110,-1.404100,-9.831392
74.799354,-0.690303,-1.302492,-9.606329
74.832517,-0.722476,-1.209714,-9.716466
74.864674,-0.832464,-1.393475,-9.859674
74.898393,-0.662469,-1.456325,-9.678457
74.932056,-0.641070,-1.336162,-9.650324
74.964842,-0.777096,-1.558681,-9.757618
74.998448,-0.528838,-1.530249,-9.551410
75.031518,-0.513724,-1.337509,-9.700604
75.064869,-0.670251,-1.405746,-9.973253
75.097917,-0.694493,-1.431185,-9.893643
75.131387,-0.568194,-1.348732,-9.717214
75.164558,-0.630296,-1.326136,-9.942876
75.198045,-0.629398,-1.338556,-9.764950
75.231814,-0.630296,-1.183526,-9.743252
75.264547,-0.593484,-1.490294,-10.041042
75.298098,-0.554427,-1.353520,-9.643590
75.332062,-0.711403,-1.160481,-9.673668
75.364701,-0.725619,-1.309226,-9.898432
75.398051,-0.729509,-1.391979,-9.843363
75.435548,-0.662769,-1.394822,-9.596453
75.464501,-0.666510,-1.431484,-9.805204
75.498071,-0.674740,-1.432831,-9.827202
75.531493,-0.692099,-1.431933,-9.657208
75.565679,-0.703771,-1.414575,-9.691476
75.599372,-0.689854,-1.322544,-9.790240
75.631506,-0.691201,-1.433280,-9.517591
75.665100,-0.797298,-1.418316,-9.843214
75.699286,-0.722476,-1.367437,-9.738015
75.731823,-0.722027,-1.413827,-9.650623
75.766372,-0.688358,-1.391081,-9.805953
75.798922,-0.672196,-1.246825,-9.740858
75.832133,-0.761832,-1.295758,-9.744599
75.866190,-0.726217,-1.234854,-9.862218
75.898249,-0.655137,-1.247573,-9.858777
75.932234,-0.638676,-1.265231,-9.743103
75.967182,-0.833511,-1.261939,-9.563082
75.998800,-0.579567,-1.287079,-9.814632
76.032010,-0.580016,-1.208816,-9.807748
76.066988,-0.637778,-1.202830,-9.455639
76.098498,-0.822138,-1.301445,-9.724098
76.133346,-0.653341,-1.248471,-9.744000
76.166726,-0.718137,-1.045555,-9.503075
76.198542,-0.706614,-1.245478,-9.861919
76.232634,-0.620270,-1.347086,-9.620545
76.265949,-0.642268,-1.180084,-9.379470
76.298463,-0.810765,-1.160331,-9.661996
76.332891,-0.625807,-1.312818,-9.707937
76.365538,-0.725768,-1.244281,-9.709283
76.399291,-0.926888,-1.310723,-9.756421
76.433031,-0.767369,-1.404100,-10.119904
76.465312,-0.660973,-1.387040,-9.613811
76.498429,-0.819594,-1.300397,-9.498287
76.532598,-0.883043,-1.415772,-10.099851
76.572825,-0.712600,-1.300547,-9.867306
76.598669,-0.749113,-1.513638,-9.609471
76.631646,-0.843687,-1.442109,-9.691177
76.665283,-0.783381,-1.384347,-9.554104
76.699611,-0.776348,-1.444803,-9.560688
76.732731,-0.808820,-1.409786,-9.642393
76.765155,-0.830518,-1.392428,-9.676661
76.800052,-0.850571,-1.454829,-9.833637
76.832325,-0.815704,-1.551049,-9.625783
76.865023,-0.731455,-1.549104,-9.569218
76.898534,-0.747766,-1.481764,-9.725594
76.931341,-0.914019,-1.428492,-9.800865
76.964796,-0.880200,-1.449891,-9.902921
76.998913,-0.773654,-1.459917,-9.745946
77.031971,-0.753452,-1.503912,-9.977593
77.064796,-0.758091,-1.476527,-9.815829
77.098796,-0.813010,-1.506755,-9.879727
77.131403,-0.733250,-1.501667,-9.969213
77.164565,-0.766920,-1.550151,-9.937190
77.198315,-0.728013,-1.587861,-9.696115
77.231312,-0.708410,-1.504510,-9.495892
77.264864,-0.817050,-1.295758,-9.722003
77.298318,-0.734747,-1.386442,-9.834834
77.331445,-0.648852,-1.321048,-9.497987
77.365220,-0.747616,-1.111398,-9.619348
77.398064,-0.769913,-1.104964,-9.821216
77.431430,-0.613686,-1.325088,-9.526719
77.464968,-0.707063,-1.170507,-9.563980
77.498338,-0.751058,-1.172004,-9.938536
77.531250,-0.705866,-1.169160,-9.849349
77.565095,-0.629249,-1.335264,-9.598099
77.597940,-0.743277,-1.158087,-9.692374
77.631231,-0.697037,-1.199239,-9.730982
77.665645,-0.668455,-1.227521,-9.677409
77.703598,-0.734148,-1.220039,-9.493648
77.731994,-0.753602,-1.208816,-9.624286
77.765611,-0.725469,-1.253110,-9.915641
77.799063,-0.666061,-1.416520,-9.890501
77.832425,-0.772158,-1.224528,-9.609920
77.866344,-0.784129,-1.271516,-9.763903
77.898955,-0.679379,-1.435226,-9.667832
77.932379,-0.638227,-1.463957,-9.383062
77.966144,-0.782633,-1.349330,-9.623837
77.998902,-0.768267,-1.343494,-9.556947
78.032146,-0.620719,-1.369682,-9.606628
78.065465,-0.664564,-1.355017,-9.733077
78.099187,-0.759737,-1.371777,-9.582536
78.132977,-0.751956,-1.361302,-9.580890
78.165747,-0.656184,-1.466800,-9.852941
78.199522,-0.678331,-1.527106,-9.701053
78.232704,-0.671598,-1.442259,-9.824508
78.266129,-0.706913,-1.427294,-9.936292
78.298072,-0.650947,-1.454380,-9.812537
78.331753,-0.685365,-1.426247,-9.894990
78.364625,-0.637629,-1.538180,-10.073664
78.399364,-0.691201,-1.481316,-9.946467
78.431379,-0.694194,-1.498674,-9.885563
78.464710,-0.642567,-1.443755,-9.866408
78.499869,-0.565201,-1.479969,-9.949311
78.531366,-0.511180,-1.340352,-9.810143
78.564841,-0.598721,-1.431036,-9.845608
78.599563,-0.639125,-1.371178,-9.887059
78.631411,-0.590491,-1.399610,-9.629524
78.664658,-0.625358,-1.386292,-9.478384
78.698683,-0.679978,-1.289773,-9.694469
78.738128,-0.635085,-1.410684,-9.649576
78.764577,-0.692248,-1.374919,-9.914593
78.797896,-0.646458,-1.224977,-9.616954
78.831600,-0.637329,-1.184424,-9.543629
78.864675,-0.694792,-1.330326,-9.768542
78.898063,-0.753003,-1.301894,-9.633414
78.931272,-0.506691,-1.134294,-9.533602
78.964661,-0.597225,-1.256103,-9.656609
78.998052,-0.690153,-1.241139,-9.706739
79.031319,-0.701676,-1.172004,-9.868952
79.064679,-0.473321,-1.250716,-9.588222
79.098035,-0.741780,-1.339753,-10.015902
79.131266,-0.666360,-1.296955,-9.827052
79.164843,-0.492924,-1.299948,-9.625184
79.197952,-0.671298,-1.215999,-9.821516
79.231326,-0.682970,-1.283637,-9.869850
79.264651,-0.601864,-1.162726,-10.052115
79.298099,-0.596626,-1.353820,-10.018595
79.331307,-0.606653,-1.318055,-9.925368
79.364658,-0.462696,-1.405447,-9.575203
79.398064,-0.546346,-1.212706,-9.745198
79.431614,-0.613835,-1.338556,-9.724697
79.464716,-0.518513,-1.453033,-9.515945
79.497952,-0.591838,-1.093441,-9.819271
79.531325,-0.651994,-1.226025,-9.934646
79.564719,-0.629997,-1.458570,-9.581189
79.598469,-0.669951,-1.356962,-9.597051
79.631372,-0.712899,-1.251165,-9.848900
79.664776,-0.626405,-1.419513,-9.727091
79.697996,-0.618774,-1.344841,-9.685340
79.731381,-0.674590,-1.364295,-9.684443
79.765325,-0.619223,-1.398862,-9.783207
79.811805,-0.605006,-1.452285,-9.733226
79.831230,-0.694343,-1.346338,-9.597500
79.864604,-0.680127,-1.346038,-9.802361
79.897898,-0.589593,-1.389584,-9.901575
79.931290,-0.579567,-1.365342,-9.902622
79.964621,-0.616379,-1.362050,-9.812836
79.997980,-0.508337,-1.296806,-9.759713
80.031339,-0.644213,-1.296955,-9.845907
80.064674,-0.595729,-1.419214,-9.793682
80.097989,-0.623861,-1.363397,-9.662146
80.131270,-0.659028,-1.315661,-9.896337
80.164662,-0.608149,-1.433729,-9.801912
80.198020,-0.603510,-1.455128,-9.606479
80.231327,-0.641519,-1.367288,-9.787547
80.265050,-0.598273,-1.422356,-9.749687
80.297981,-0.553080,-1.424002,-9.508313
80.331244,-0.626405,-1.352772,-9.624885
80.364698,-0.660075,-1.356064,-9.804307
80.397985,-0.571486,-1.417268,-9.627429
80.431553,-0.546945,-1.355167,-9.447558
80.464609,-0.651396,-1.270469,-9.642393
80.498110,-0.688806,-1.244131,-9.822264
80.531321,-0.597524,-1.362050,-9.632068
80.564750,-0.600816,-1.327333,-9.646284
80.598001,-0.598721,-1.259545,-9.756870
80.631447,-0.578669,-1.288575,-9.886610
80.664681,-0.611441,-1.265081,-10.002583
80.697944,-0.509534,-1.280046,-9.676063
80.731337,-0.551285,-1.275257,-9.830045
80.764651,-0.633588,-1.271067,-9.931802
80.798196,-0.580315,-1.259994,-9.936441
80.831325,-0.493822,-1.341549,-9.957242
80.864714,-0.556971,-1.218243,-9.914593
80.897981,-0.593334,-1.252362,-10.117958
80.932297,-0.542456,-1.365342,-9.878679
80.970617,-0.480803,-1.323592,-9.821665
80.998124,-0.543354,-1.345589,-9.629973
81.031423,-0.548591,-1.313865,-9.412990
81.064650,-0.606204,-1.302492,-9.633863
81.097924,-0.561760,-1.241139,-9.684143
81.131269,-0.579567,-1.266877,-9.787397
81.164656,-0.614135,-1.366689,-9.771984
81.197939,-0.605455,-1.325088,-9.620844
81.231255,-0.560712,-1.312668,-9.631918
81.264873,-0.650049,-1.395420,-9.784105
81.297955,-0.665163,-1.467099,-9.656310
81.331322,-0.498760,-1.339155,-9.285644
81.364706,-0.521057,-1.382402,-9.514897
81.398010,-0.655137,-1.413228,-9.671274
81.431319,-0.569691,-1.508102,-9.537194
81.464657,-0.466736,-1.435226,-9.619348
81.498050,-0.583009,-1.539227,-9.834684
81.531403,-0.607850,-1.464406,-9.783357
81.565146,-0.535273,-1.427294,-9.918933
81.597943,-0.586600,-1.574693,-9.928510
81.631286,-0.521955,-1.617191,-9.535697
81.664636,-0.573881,-1.500171,-9.756122
81.697964,-0.693146,-1.499422,-9.885712
81.731328,-0.516418,-1.506605,-10.014555
81.764608,-0.493522,-1.495083,-9.797872
81.798070,-0.600368,-1.415024,-9.702400
81.831260,-0.622664,-1.479819,-9.923422
81.865058,-0.506691,-1.533242,-9.689082
81.898017,-0.535123,-1.318205,-9.727240
81.931415,-0.631942,-1.298003,-9.626082
81.964685,-0.573881,-1.412330,-9.689979
81.998071,-0.505494,-1.388387,-9.523427
82.031504,-0.523900,-1.240241,-9.584780
82.073552,-0.537517,-1.318803,-9.875836
82.097902,-0.482299,-1.469494,-9.657956
82.131275,-0.512228,-1.399012,-9.540486
82.164731,-0.528090,-1.478622,-9.544526
82.198127,-0.518363,-1.477874,-9.555600
82.231236,-0.556672,-1.416819,-9.718860
82.265426,-0.607999,-1.410235,-9.560838
82.297947,-0.590940,-1.460665,-9.742654
82.331351,-0.609496,-1.358010,-9.701053
82.364647,-0.566698,-1.465902,-9.715269
82.398021,-0.557121,-1.361302,-9.634312
82.431415,-0.595878,-1.338407,-9.654514
82.464797,-0.595130,-1.308927,-9.931952
82.498063,-0.504297,-1.453781,-9.839922
82.531270,-0.534824,-1.383000,-9.772582
82.564742,-0.526893,-1.414874,-9.639250
82.598204,-0.604558,-1.495981,-9.717364
82.631262,-0.528539,-1.484907,-9.770487
82.664599,-0.555475,-1.487750,-9.876434
82.697987,-0.527491,-1.484608,-9.996149
82.731327,-0.496216,-1.534139,-9.820767
82.764625,-0.518214,-1.337509,-9.735620
82.797984,-0.544102,-1.438667,-10.007222
82.831592,-0.451323,-1.458570,-9.753428
82.864684,-0.366326,-1.446898,-9.689830
82.897942,-0.457907,-1.327932,-9.627279
82.931303,-0.579118,-1.441361,-9.659452
82.964704,-0.412117,-1.313416,-9.526120
82.998006,-0.455363,-1.305335,-9.506517
83.031686,-0.478708,-1.390931,-9.641046
83.064647,-0.483796,-1.391679,-9.805803
83.098082,-0.467933,-1.371627,-9.522529
83.131329,-0.509684,-1.318504,-9.715868
83.167966,-0.528838,-1.401107,-9.903819
83.197912,-0.444739,-1.486852,-9.863116
83.231288,-0.504446,-1.435974,-9.702549
83.264597,-0.505943,-1.327183,-9.691027
83.298073,-0.460152,-1.428641,-9.768991
83.331494,-0.471076,-1.389285,-9.633414
83.364659,-0.484694,-1.337509,-9.641794
83.397990,-0.558019,-1.356064,-9.903520
83.431264,-0.532280,-1.567660,-9.718262
83.464635,-0.459553,-1.428492,-9.517142
83.497981,-0.527192,-1.428192,-9.613213
83.531273,-0.574180,-1.400957,-9.927014
83.564658,-0.482000,-1.524712,-9.567721
83.598080,-0.433216,-1.458420,-9.557545
83.632140,-0.543054,-1.492838,-9.878230
83.664691,-0.539164,-1.545363,-9.818074
83.698009,-0.407328,-1.465154,-9.578196
83.731319,-0.467485,-1.446898,-9.773330
83.764776,-0.561460,-1.517230,-9.894841
83.798012,-0.514472,-1.516631,-9.678906
83.831415,-0.537218,-1.394223,-9.701053
83.864827,-0.533327,-1.386891,-9.732927
83.897930,-0.580465,-1.509149,-10.034757
83.931316,-0.463594,-1.530698,-9.774827
83.964721,-0.538565,-1.437321,-9.909805
83.997924,-0.582859,-1.381354,-9.789791
84.031259,-0.476014,-1.546261,-9.714072
84.064646,-0.570888,-1.335863,-9.618749
84.098044,-0.557270,-1.307730,-9.855634
84.131324,-0.534375,-1.576638,-9.930456
84.164672,-0.533926,-1.487301,-9.631768
84.197994,-0.542007,-1.483111,-9.646433
84.232205,-0.545598,-1.464406,-9.723050
84.264641,-0.532430,-1.529052,-9.558743
84.297916,-0.553380,-1.468746,-9.568619
84.331249,-0.497563,-1.677497,-9.419126
84.364753,-0.385630,-1.546709,-9.446810
84.397951,-0.427680,-1.588610,-9.755224
84.431309,-0.481252,-1.582474,-9.594358
84.464650,-0.562508,-1.522168,-10.054360
84.497927,-0.505644,-1.477425,-9.701801
84.531315,-0.464791,-1.614947,-9.487662
84.564696,-0.585104,-1.515883,-9.871945
84.597994,-0.519261,-1.505857,-9.814482
84.631294,-0.443093,-1.544914,-9.652569
84.664702,-0.533926,-1.628415,-9.733675
84.698047,-0.577622,-1.581277,-9.575802
84.731330,-0.452221,-1.521270,-9.626680
84.764720,-0.423340,-1.517080,-9.845907
84.797981,-0.524648,-1.479819,-9.739511
84.831513,-0.572235,-1.450788,-9.715269
84.864741,-0.500256,-1.459917,-9.754924
84.897948,-0.538116,-1.428043,-9.813584
84.932115,-0.461200,-1.441211,-9.600493
84.964723,-0.541857,-1.486403,-9.771535
84.997988,-0.512677,-1.486703,-9.948113
85.031466,-0.445337,-1.158536,-9.888107
85.064734,-0.486639,-1.288126,-9.834086
85.097986,-0.553978,-1.257899,-9.693571
85.131385,-0.448630,-1.166916,-9.525522
85.164670,-0.431421,-1.380157,-9.629524
85.197983,-0.511779,-1.315511,-9.849499
85.231597,-0.573881,-1.333468,-9.677559
85.264648,-0.519111,-1.368185,-9.519386
85.297953,-0.529437,-1.252362,-9.674117
85.331311,-0.482748,-1.294411,-9.744599
85.373995,-0.472423,-1.245329,-9.648977
85.397930,-0.504297,-1.209564,-9.716765
85.431228,-0.479456,-1.160930,-9.701652
85.464604,-0.448181,-1.276454,-9.531956
85.497987,-0.464342,-1.180683,-9.893344
85.531275,-0.645410,-1.176792,-9.570564
85.564651,-0.600068,-1.312219,-9.686987
85.597994,-0.480653,-1.361302,-9.720058
85.631499,-0.590790,-1.306682,-9.756421
85.664669,-0.623263,-1.406195,-9.539439
85.697928,-0.572384,-1.384796,-9.637754
85.731490,-0.506541,-1.300696,-9.900078
85.764722,-0.481701,-1.397067,-9.743103
85.798038,-0.630446,-1.428043,-9.753578
85.831535,-0.576275,-1.443157,-9.644638
85.864663,-0.454915,-1.372375,-9.651671
85.898004,-0.591987,-1.415024,-9.820019
85.931330,-0.603809,-1.525161,-9.767195
85.964773,-0.611441,-1.414724,-9.723799
85.998004,-0.576724,-1.457073,-9.823012
86.031233,-0.695989,-1.476527,-9.704345
86.064819,-0.729210,-1.376565,-9.792335
86.098271,-0.641519,-1.402005,-9.762107
86.131281,-0.648852,-1.431036,-9.797573
86.164653,-0.665013,-1.441511,-9.754475
86.198057,-0.656334,-1.364295,-9.877183
86.231286,-0.677583,-1.332570,-9.646284
86.264672,-0.646158,-1.515284,-9.514448
86.298003,-0.664864,-1.458271,-9.633863
86.331360,-0.654538,-1.462909,-9.809394
86.364587,-0.733699,-1.440463,-9.703896
86.397971,-0.687759,-1.444204,-9.585379
86.431399,-0.658728,-1.492239,-9.755972
86.469967,-0.696738,-1.539078,-9.760760
86.498064,-0.694792,-1.497178,-9.560239
86.531288,-0.688208,-1.605669,-9.706590
86.564759,-0.692099,-1.392877,-9.881522
86.598100,-0.632391,-1.534439,-9.687735
86.631356,-0.646308,-1.497627,-9.735022
86.664683,-0.665462,-1.447796,-9.813136
86.697973,-0.654239,-1.368335,-9.758516
86.731421,-0.624909,-1.518427,-9.650174
86.764641,-0.644811,-1.457373,-9.740110
86.797963,-0.659925,-1.462909,-9.729635
86.831272,-0.680875,-1.357710,-9.743552
86.865237,-0.591389,-1.387040,-9.869551
86.897947,-0.592586,-1.518876,-9.494845
86.931343,-0.699281,-1.350677,-9.492750
86.965518,-0.716042,-1.406195,-9.534500
86.998233,-0.634336,-1.445102,-9.855185
87.031261,-0.586301,-1.445102,-9.581488
87.064639,-0.656184,-1.360105,-9.536595
87.097914,-0.685963,-1.383000,-9.776772
87.131251,-0.606204,-1.398413,-9.685789
87.164586,-0.632541,-1.311620,-9.612315
87.197897,-0.669802,-1.260293,-9.892596
87.231314,-0.618025,-1.332570,-9.834834
87.264592,-0.632690,-1.343644,-9.614260
87.297899,-0.653940,-1.213604,-9.781561
87.331304,-0.652144,-1.295609,-9.899480
87.364577,-0.650348,-1.317307,-9.781112
87.398016,-0.657830,-1.253559,-9.746095
87.431233,-0.654538,-1.205673,-9.701801
87.464585,-0.677583,-1.302492,-9.765399
87.497862,-0.673094,-1.383748,-9.675015
87.531444,-0.674740,-1.247573,-9.619498
87.564722,-0.712600,-1.324789,-9.804007
87.597927,-0.685065,-1.335264,-9.572659
87.631239,-0.701376,-1.339753,-9.736518
87.664651,-0.663068,-1.306233,-9.697312
87.697920,-0.682671,-1.281393,-9.828249
87.731271,-0.658429,-1.505258,-9.746544
87.764559,-0.708709,-1.369532,-9.681001
87.797932,-0.685215,-1.253709,-9.798022
87.831263,-0.625208,-1.353820,-9.799219
87.864714,-0.671598,-1.436722,-9.585529
87.897923,-0.726965,-1.353520,-9.679205
87.931218,-0.651096,-1.413677,-9.741457
87.964547,-0.697186,-1.345290,-9.690279
87.997975,-0.765274,-1.354418,-9.748340
88.031274,-0.745222,-1.361302,-9.741905
88.064615,-0.702125,-1.398713,-9.751034
88.097917,-0.697486,-1.388088,-9.702699
88.131279,-0.724870,-1.381055,-9.620545
88.164608,-0.704519,-1.315362,-9.792186
88.197935,-0.714395,-1.316559,-9.696414
88.231249,-0.714844,-1.374171,-9.667683
88.264569,-0.741331,-1.305485,-9.697611
88.298648,-0.729659,-1.338107,-9.696564
88.331188,-0.689405,-1.301145,-9.710929
88.364551,-0.702723,-1.333768,-9.590317
88.397992,-0.737440,-1.333019,-9.728587
88.431259,-0.733849,-1.356962,-9.737117
88.464678,-0.703172,-1.358159,-9.803109
88.497901,-0.754500,-1.328231,-9.881522
88.531236,-0.770063,-1.378810,-9.745497
88.564536,-0.778443,-1.422207,-9.781411
88.597880,-0.711552,-1.374470,-9.723200
88.631256,-0.785625,-1.408739,-9.827202
88.665304,-0.731305,-1.437620,-9.862368
88.697939,-0.714246,-1.416670,-9.725295
88.731253,-0.728761,-1.401705,-9.659303
88.764973,-0.704220,-1.366689,-9.672322
88.797939,-0.716042,-1.401406,-9.732777
88.831254,-0.716490,-1.449142,-9.657956
88.864585,-0.738787,-1.416670,-9.661248
88.897897,-0.711851,-1.419962,-9.728438
88.931247,-0.704818,-1.376715,-9.724098
88.964585,-0.754051,-1.422655,-9.667832
88.997927,-0.753452,-1.466950,-9.694768
89.031260,-0.694044,-1.379409,-9.711827
89.064645,-0.699281,-1.365941,-9.770936
89.097925,-0.789067,-1.378511,-9.745497
89.131259,-0.738787,-1.474582,-9.698060
89.164593,-0.725170,-1.429240,-9.750136
89.197914,-0.717688,-1.419214,-9.868503
89.231231,-0.749113,-1.420411,-9.773330
89.264553,-0.731604,-1.384796,-9.794580
89.297921,-0.707661,-1.426995,-9.766746
89.331208,-0.736094,-1.434178,-9.733825
89.364686,-0.797896,-1.412031,-9.711229
89.397993,-0.777694,-1.436722,-9.813584
89.431211,-0.717239,-1.405297,-9.819720
89.464640,-0.697336,-1.414874,-9.785601
89.497907,-0.718735,-1.392877,-9.741756
89.531234,-0.735495,-1.346038,-9.810292
89.564590,-0.688657,-1.342746,-9.716466
89.597889,-0.699431,-1.360254,-9.719010
89.631259,-0.704070,-1.334067,-9.617253
89.664667,-0.712450,-1.370879,-9.614110
89.697936,-0.686263,-1.421009,-9.673219
89.731249,-0.672795,-1.447796,-9.650474
89.764605,-0.710056,-1.359656,-9.587923
89.797956,-0.699581,-1.346338,-9.652868
89.831497,-0.693146,-1.366839,-9.708086
89.864615,-0.677284,-1.402753,-9.622341
89.897873,-0.686562,-1.397366,-9.734423
89.931263,-0.728462,-1.432233,-9.786050
89.964626,-0.659776,-1.439416,-9.693870
89.997984,-0.677733,-1.360404,-9.722901
90.031265,-0.740733,-1.448394,-9.773031
90.064611,-0.709756,-1.444503,-9.776473
90.098277,-0.688507,-1.415024,-9.817475
90.131533,-0.689106,-1.401107,-9.740259
90.164696,-0.710654,-1.362200,-9.838425
90.197969,-0.694343,-1.454829,-9.729934
90.231663,-0.688058,-1.360554,-9.776473
90.264694,-0.698683,-1.362798,-9.780513
90.297936,-0.682970,-1.397067,-9.722901
90.331337,-0.676985,-1.359656,-9.608125
90.364708,-0.716341,-1.306832,-9.722302
90.398016,-0.754649,-1.359805,-9.644787
90.431336,-0.731006,-1.350528,-9.694169
90.464758,-0.691201,-1.410235,-9.661398
90.498036,-0.708110,-1.345440,-9.659452
90.531278,-0.747317,-1.315511,-9.698958
90.564715,-0.689106,-1.320898,-9.667084
90.597934,-0.716490,-1.295160,-9.707039
90.631309,-0.703172,-1.381204,-9.676811
90.665045,-0.742828,-1.299499,-9.710331
90.699247,-0.721578,-1.328680,-9.749537
90.731326,-0.686412,-1.285134,-9.745347
90.764600,-0.692548,-1.311321,-9.732328
90.797945,-0.668156,-1.364594,-9.656609
90.831496,-0.685365,-1.366390,-9.758067
90.872154,-0.674890,-1.296955,-9.780214
90.898079,-0.620420,-1.442708,-9.717364
90.931253,-0.677583,-1.364444,-9.739212
90.964649,-0.693146,-1.379409,-9.768392
90.997943,-0.679529,-1.375967,-9.755523
91.031268,-0.716939,-1.397216,-9.813435
91.064645,-0.688956,-1.420710,-9.765250
91.097980,-0.681923,-1.412180,-9.759863
91.131224,-0.661422,-1.410534,-9.799069
91.164694,-0.634037,-1.446748,-9.805204
91.198270,-0.627752,-1.432083,-9.708385
91.231534,-0.644961,-1.385544,-9.681749
91.265474,-0.640173,-1.389135,-9.653317
91.298184,-0.668455,-1.332570,-9.728587
91.331486,-0.682222,-1.380307,-9.652120
91.364802,-0.644961,-1.432083,-9.650773
91.397904,-0.590790,-1.338855,-9.611118
91.431335,-0.534974,-1.318953,-9.734274
91.464931,-0.421993,-1.413677,-9.600194
91.497931,-0.425585,-1.354269,-9.526869
91.531340,-0.565950,-1.431185,-9.811789
91.565419,-0.409573,-1.378511,-9.833936
91.598107,-0.377549,-1.407093,-9.614260
91.631355,-0.574928,-1.306084,-9.866259
91.664619,-0.660973,-1.340651,-9.919532
91.697991,-0.577622,-1.511094,-9.855784
91.731321,-0.645260,-1.423703,-9.805204
91.764621,-0.680726,-1.434328,-9.752380
91.798012,-0.671149,-1.478323,-9.777371
91.831390,-0.740583,-1.371777,-9.785601
91.864655,-0.683419,-1.445102,-9.738164
91.898423,-0.658728,-1.418166,-9.750734
91.936988,-0.593783,-1.388238,-9.735172
91.964580,-0.654838,-1.461712,-9.639849
91.997985,-0.665911,-1.422506,-9.800416
92.031267,-0.612788,-1.466052,-9.697312
92.064592,-0.591987,-1.457822,-9.672770
92.097912,-0.599619,-1.468147,-9.744599
92.131314,-0.661422,-1.500619,-9.751333
92.164768,-0.666510,-1.492988,-9.767045
92.197894,-0.626256,-1.480268,-9.770787
92.231506,-0.640173,-1.467399,-9.762407
92.264667,-0.608897,-1.497327,-9.701203
92.298043,-0.581512,-1.475629,-9.651820
92.331461,-0.588845,-1.455427,-9.695516
92.364871,-0.588845,-1.501966,-9.677709
92.398329,-0.573731,-1.468147,-9.726043
92.432581,-0.576724,-1.476377,-9.670526
92.464641,-0.583308,-1.448693,-9.653317
92.498047,-0.603660,-1.419513,-9.759414
92.531419,-0.561011,-1.432532,-9.669179
92.564695,-0.593185,-1.372226,-9.702400
92.597997,-0.595729,-1.364744,-9.727839
92.631398,-0.570738,-1.414874,-9.723799
92.665161,-0.612489,-1.400359,-9.732328
92.699189,-0.599470,-1.450938,-9.731131
92.731333,-0.604558,-1.440313,-9.723649
92.764584,-0.674740,-1.396019,-9.769290
92.797914,-0.677733,-1.413976,-9.829147
92.831538,-0.637928,-1.409786,-9.752979
92.864609,-0.548292,-1.396169,-9.709433
92.898140,-0.550087,-1.435974,-9.750136
92.931438,-0.554128,-1.476677,-9.644937
92.964881,-0.549938,-1.495382,-9.680253
92.998459,-0.519411,-1.468147,-9.704794
93.033578,-0.528689,-1.481465,-9.704794
93.064594,-0.527042,-1.439565,-9.735620
93.097982,-0.520757,-1.510496,-9.684443
93.131212,-0.532280,-1.536983,-9.697013
93.164646,-0.540810,-1.501817,-9.683844
93.197956,-0.504596,-1.553294,-9.715718
93.231473,-0.510731,-1.553593,-9.662595
93.264621,-0.519411,-1.530398,-9.757468
93.298049,-0.538266,-1.564517,-9.730233
93.331288,-0.501753,-1.526358,-9.714670
93.364627,-0.507888,-1.552097,-9.691326
93.398133,-0.506092,-1.522617,-9.727091
93.431575,-0.499059,-1.556137,-9.721404
93.464719,-0.526294,-1.538778,-9.785901
93.498158,-0.495318,-1.523964,-9.750884
93.532231,-0.469430,-1.539676,-9.675464
93.564617,-0.508786,-1.514387,-9.791737
93.597914,-0.483646,-1.583073,-9.723050
93.631265,-0.520458,-1.503762,-9.705842
93.664871,-0.760037,-1.574693,-9.874788
93.697895,-0.580914,-1.547757,-9.790988
93.731427,-0.630595,-1.587412,-9.724846
93.764661,-0.620869,-1.503014,-9.774378
93.798007,-0.370217,-1.501218,-9.468508
93.831528,-0.429176,-1.466202,-9.646284
93.864794,-0.449078,-1.468147,-9.607526
93.897953,-0.368870,-1.514087,-9.645386
93.931358,-0.345526,-1.460216,-9.651521
93.965096,-0.458656,-1.429689,-9.752530
93.998414,-0.436508,-1.494634,-9.712276
94.031406,-0.505494,-1.610757,-9.548118
94.064601,-0.535422,-1.474582,-9.733525
94.097986,-0.437406,-1.567360,-9.649725
94.140212,-0.434713,-1.529351,-9.708086
94.164746,-0.468682,-1.512591,-9.842316
94.198058,-0.411219,-1.509448,-9.759414
94.231341,-0.368720,-1.492988,-9.653167
94.264724,-0.433815,-1.506007,-9.691476
94.298398,-0.424387,-1.522767,-9.665887
94.331327,-0.403288,-1.486852,-9.708685
94.364707,-0.374107,-1.495532,-9.672920
94.398006,-0.390418,-1.506755,-9.661547
94.431394,-0.416756,-1.464855,-9.730233
94.464913,-0.400445,-1.513938,-9.735620
94.498625,-0.383984,-1.546560,-9.681001
94.531651,-0.628800,-1.546560,-9.707039
94.564651,-0.624011,-1.505558,-9.832439
94.598007,-0.483796,-1.544315,-9.670975
94.631434,-0.483197,-1.469344,-9.855036
94.664698,-0.483496,-1.426247,-9.790539
94.698567,-0.459254,-1.434926,-9.719160
94.731330,-0.387725,-1.501068,-9.715718
94.764839,-0.448330,-1.444354,-9.768392
94.798091,-0.457907,-1.442708,-9.681001
94.831229,-0.439801,-1.443456,-9.718262
94.864769,-0.434114,-1.454679,-9.652718
94.897956,-0.446684,-1.442857,-9.744150
94.931411,-0.375305,-1.463807,-9.714222
94.964797,-0.309462,-1.431185,-9.723948
94.998203,-0.340887,-1.466950,-9.750884
95.031578,-0.389970,-1.465453,-9.749687
95.064639,-0.365727,-1.495382,-9.725295
95.097928,-0.353906,-1.546111,-9.739960
95.131325,-0.377699,-1.514237,-9.769440
95.165157,-0.420048,-1.493736,-9.763304
95.198957,-0.387426,-1.524263,-9.738613
95.234079,-0.401193,-1.465902,-9.738164
95.264563,-0.393860,-1.524712,-9.734423
95.297959,-0.351362,-1.529501,-9.698060
95.331261,-0.351811,-1.508251,-9.734124
95.364674,-0.398798,-1.432233,-9.719010
95.397942,-0.394309,-1.425798,-9.749388
95.431875,-0.360041,-1.518277,-9.702849
95.464597,-0.348518,-1.499871,-9.692374
95.498106,-0.313502,-1.447496,-9.682647
95.531380,-0.294497,-1.491641,-9.697462
95.564633,-0.330711,-1.454529,-9.687435
95.597954,-0.333704,-1.500619,-9.734423
95.631550,-0.414511,-1.443606,-9.706739
95.664710,-0.497563,-1.452734,-9.731430
95.698043,-0.356001,-1.585916,-9.724697
95.731322,-0.376801,-1.436872,-9.753428
95.766208,-0.395207,-1.425798,-9.764053
95.798012,-0.331609,-1.440912,-9.714072
95.831473,-0.304224,-1.448095,-9.709732
95.864801,-0.374407,-1.421758,-9.789791
95.897945,-0.445038,-1.409038,-9.756720
95.931363,-0.402839,-1.438069,-9.745497
95.964712,-0.388323,-1.440164,-9.686089
95.997929,-0.429775,-1.406195,-9.762407
96.031794,-0.424836,-1.446449,-9.710181
96.064677,-0.336098,-1.439416,-9.674417
96.097985,-0.313352,-1.497477,-9.672471
96.131710,-0.392813,-1.433430,-9.721704
96.164639,-0.445337,-1.458420,-9.720058
96.197974,-0.395506,-1.495232,-9.720058
96.231357,-0.394908,-1.459468,-9.729036
96.265493,-0.388772,-1.467997,-9.690428
96.298266,-0.389521,-1.510047,-9.700454
96.339968,-0.419898,-1.417119,-9.753129
96.364619,-0.387276,-1.508251,-9.739661
96.397904,-0.368571,-1.492090,-9.711977
96.432085,-0.331459,-1.486403,-9.705692
96.464646,-0.347321,-1.488199,-9.713773
96.498040,-0.369768,-1.491940,-9.712426
96.531353,-0.383984,-1.489845,-9.734723
96.565520,-0.350464,-1.469793,-9.715568
96.598070,-0.347770,-1.495083,-9.700754
96.631264,-0.317093,-1.401107,-9.688034
96.665075,-0.375305,-1.511693,-9.687735
96.697932,-0.366925,-1.492389,-9.692224
96.731356,-0.379345,-1.464556,-9.678607
96.764751,-0.374407,-1.460216,-9.695666
96.798531,-0.370965,-1.448244,-9.730682
96.831490,-0.376502,-1.456325,-9.736219
96.864747,-0.419150,-1.459917,-9.731730
96.897942,-0.432318,-1.436273,-9.725145
96.931753,-0.479905,-1.437021,-9.797872
96.964609,-0.493074,-1.439565,-9.759863
96.997955,-0.477810,-1.479669,-9.750884
97.031495,-0.528389,-1.443306,-9.781860
97.064575,-0.549040,-1.424601,-9.791437
97.097991,-0.583009,-1.455727,-9.719609
97.131400,-0.622215,-1.427444,-9.768093
97.164884,-0.648403,-1.463807,-9.730084
97.198138,-0.677883,-1.487750,-9.660200
97.231595,-0.688956,-1.465004,-9.695815
97.264648,-0.688806,-1.486703,-9.742055
97.298001,-0.646009,-1.480418,-9.691177
97.331816,-0.656334,-1.496729,-9.665438
97.364659,-0.636282,-1.491192,-9.676512
97.397942,-0.635085,-1.473235,-9.720357
97.440912,-0.619372,-1.388687,-9.697162
97.464787,-0.562807,-1.439416,-9.712875
97.497995,-0.532579,-1.472187,-9.704345
97.531273,-0.501603,-1.471888,-9.724248
97.564592,-0.480354,-1.486553,-9.727390
97.597942,-0.411817,-1.466052,-9.691625
97.631514,-0.403288,-1.451387,-9.714670
97.664799,-0.423789,-1.467698,-9.738015
97.697924,-0.401642,-1.424451,-9.716317
97.731335,-0.360640,-1.407542,-9.712725
97.764757,-0.356300,-1.396169,-9.701203
97.798043,-0.385480,-1.408439,-9.757319
97.831245,-0.415409,-1.408439,-9.779017
97.864694,-0.388623,-1.424601,-9.722452
97.897999,-0.395357,-1.425948,-9.712725
97.932800,-0.413613,-1.421159,-9.696264
97.964687,-0.446385,-1.396767,-9.729186
97.997998,-0.489183,-1.408888,-9.716915
98.031687,-0.524499,-1.411732,-9.722602
98.064921,-0.544251,-1.399311,-9.702100
98.097935,-0.563406,-1.418465,-9.673668
98.131361,-0.548890,-1.405596,-9.719309
98.164673,-0.587199,-1.396468,-9.762855
98.198054,-0.594232,-1.375368,-9.703298
98.231699,-0.574629,-1.399162,-9.753278
98.264652,-0.571187,-1.447796,-9.713473
