time_tick,acc_X_value,acc_Y_value,acc_Z_value
0.015557,2.501132,-7.054468,-7.060005
0.057158,1.642631,-7.032919,-7.465088
0.077544,1.121574,-6.447516,-7.802982
0.110875,0.576874,-6.034651,-8.170206
0.144576,0.019903,-5.975093,-9.088115
0.177527,-0.096969,-5.763648,-9.170868
0.210852,-0.633289,-4.057569,-7.759136
0.244210,-2.024968,-4.525801,-6.147931
0.277541,-0.143059,-5.863310,-7.388471
0.310876,2.898434,-8.248020,-5.281648
0.344169,-1.260443,-4.247914,-7.951428
0.377551,-2.205438,-4.789323,-8.044506
0.410865,-1.673008,-6.008015,-7.983900
0.444243,-2.086322,-5.808092,-7.209049
0.477624,-1.914382,-6.335433,-6.901233
0.510926,-2.286844,-6.441830,-6.827011
0.544232,-2.497990,-6.282310,-7.642864
0.577599,-1.308628,-5.174204,-8.379257
0.611114,0.869874,-3.723865,-9.355228
0.644806,1.719846,-3.976013,-8.713110
0.677685,0.772008,-4.256743,-8.602075
0.710982,0.427979,-4.110991,-9.141837
0.744264,0.696438,-3.428619,-9.976546
0.777612,1.406644,-2.744452,-9.741307
0.810994,1.409188,-3.108982,-10.321772
0.844331,-0.170443,-2.576103,-10.946830
0.878057,-0.235239,-1.181880,-10.330002
0.910955,0.436957,-2.091111,-10.274185
0.945878,0.567147,-1.896425,-10.383874
0.977657,0.503399,-2.404463,-8.917672
1.010981,0.002245,-2.560690,-8.211208
1.044800,-0.959211,-2.265445,-8.667768
1.077612,-1.735110,-2.344007,-8.965708
1.110938,-1.747081,-2.478536,-9.099189
1.144367,-0.986446,-2.983132,-10.041640
1.177664,-1.267925,-2.954700,-10.923486
1.210910,-1.751421,-2.773183,-11.104105
1.244350,-2.207832,-2.242549,-10.503139
1.282915,-2.040980,-1.894031,-9.133607
1.311044,-1.571401,-1.891337,-8.430584
1.344253,-0.603211,-1.770575,-7.858050
1.378016,-0.128094,-1.733314,-7.862540
1.411007,0.045791,-1.720894,-8.425048
1.444325,-0.206507,-1.872781,-9.514448
1.477889,-0.460900,-2.339368,-9.892746
1.510905,-0.696139,-2.582538,-10.197269
1.544325,-1.012035,-2.406259,-10.620609
1.579379,-1.314314,-2.265894,-10.365617
1.610946,-1.526059,-2.235516,-10.628241
1.644430,-1.069049,-2.255867,-10.910168
1.677839,0.016910,-2.635362,-10.400484
1.710960,0.736842,-2.743554,-10.348558
1.743364,0.920753,-2.722903,-10.803473
1.777648,1.213006,-2.576403,-10.304413
1.811493,0.762580,-2.708837,-8.490890
1.844302,0.160717,-2.905467,-8.276003
1.877849,0.059259,-2.488861,-8.846592
1.910948,0.343580,-1.920967,-9.174160
1.945475,0.690752,-2.019132,-9.204687
1.977662,0.473021,-1.476677,-9.201246
2.011187,0.313801,-1.264932,-8.543116
2.044248,0.504147,-2.133011,-7.964596
2.077575,0.921950,-2.780815,-8.162723
2.110990,0.882893,-3.375945,-9.499334
2.144975,0.693146,-2.081384,-11.607803
2.178004,0.437556,-1.348133,-12.080825
2.212681,0.274296,-1.560028,-10.712789
2.244195,0.120912,-1.957330,-9.116398
2.277551,0.097118,-1.807088,-8.084311
2.311079,0.004040,-1.538180,-7.956067
2.344490,0.005537,-1.351276,-8.709070
2.377644,-0.041900,-1.304737,-9.735471
2.412313,-0.377400,-1.441660,-10.675229
2.444229,-1.119778,-1.815618,-10.963441
2.477558,-1.609111,-1.811129,-10.470517
2.510952,-1.651011,-1.784492,-9.847104
2.544233,-1.831181,-1.862755,-9.553804
2.577606,-1.838663,-1.756808,-9.420472
2.612033,-1.851682,-2.014344,-9.384558
2.644281,-1.645324,-2.147077,-9.216359
2.680023,-1.855722,-1.380755,-9.699706
2.711735,-1.548954,-1.162127,-10.229293
2.744318,-1.027149,-1.468895,-10.006025
2.777703,-1.421009,-1.435974,-9.813136
2.810947,-1.531446,-0.885886,-9.744749
2.844804,-0.931527,-0.693595,-9.243594
2.877961,0.261277,-1.734511,-8.947002
2.911913,0.755248,-2.266492,-9.034843
2.944337,0.819145,-2.140493,-9.175806
2.978405,0.294797,-1.870088,-9.665139
3.010936,-0.380692,-1.378511,-9.703896
3.044304,-0.981658,-1.230813,-9.786050
3.077536,-1.721792,-1.210611,-9.935992
3.111184,-1.571850,-1.288875,-9.587474
3.146540,-0.775001,-0.986596,-9.028408
3.177544,-0.166253,-0.726068,-8.588308
3.210941,-1.480268,-0.358245,-8.669564
3.245633,-2.626234,-1.472187,-8.520669
3.277559,-1.038821,-1.801851,-7.766918
3.310941,-1.182927,-1.470392,-8.633351
3.345908,-2.385758,-1.669866,-9.717963
3.377623,-2.071208,-1.921415,-9.189424
3.412959,-2.021227,-1.723288,-9.836031
3.444305,-1.996985,-1.649813,-11.156929
3.477961,-1.715656,-1.369832,-10.260418
3.511663,-1.296656,-1.954636,-8.582472
3.545178,-0.587947,-3.420838,-8.459166
3.577664,-1.190260,-2.190623,-9.081531
3.611848,-0.096370,-1.776112,-9.721554
3.645290,0.352559,-2.197058,-9.951106
3.678551,-0.424387,-0.673543,-10.362475
3.712579,-0.060456,-1.573945,-10.364570
3.744445,0.022746,-0.738338,-10.944885
3.778237,-0.264120,-1.023408,-11.804434
3.811452,-0.829172,-1.975885,-12.360956
3.844560,-1.014130,-2.115652,-12.371731
3.878787,-2.134806,-0.635983,-12.939925
3.919129,-4.425989,-0.035765,-11.389325
3.944220,-4.622171,-0.337146,-9.258708
3.977601,-2.708238,-1.245478,-6.884922
4.011493,-1.407542,-2.457885,-6.958696
4.044216,-2.481828,-2.076446,-8.388535
4.077881,-3.007374,-2.501581,-9.395931
4.112497,-3.557911,-2.700756,-8.910190
4.145122,-2.920881,-1.537881,-7.909977
4.178242,-2.466116,-1.473684,-6.347704
4.211217,-2.714373,-3.440740,-4.726024
4.244918,-2.195861,-3.432959,-6.314783
4.278439,-1.670764,-5.160437,-8.545360
4.311447,-1.388687,-5.373978,-10.197269
4.345294,-1.126512,-4.093483,-14.599615
4.387452,-0.576574,-3.941146,-15.177985
4.410860,-1.158087,-4.643570,-13.846013
4.444669,-2.260057,-4.588801,-11.793510
4.477566,-2.061032,-4.366132,-10.372501
4.510877,-1.546859,-4.254648,-9.220849
4.544217,-1.545662,-3.168839,-9.105324
4.577729,-1.669866,-3.236178,-8.760098
4.613076,-2.191820,-3.975863,-8.286927
4.644530,-2.251079,-4.245370,-7.683267
4.678764,-1.938325,-4.299840,-7.483943
4.711620,-2.225939,-4.242826,-8.281390
4.744655,-3.917802,-4.337700,-8.855870
4.778925,-2.422121,-3.929025,-8.160928
4.811722,-2.098742,-4.368527,-8.085358
4.846548,-1.928598,-4.966200,-8.086406
4.878449,-1.840608,-5.484115,-7.416753
4.911665,-1.638590,-5.986167,-7.715141
4.945059,-1.817713,-5.874533,-7.709455
4.978303,-1.368485,-6.085530,-6.810400
5.012036,-0.935867,-6.082238,-6.491810
5.049181,-0.721429,-5.586022,-7.221320
5.077949,-0.433965,-5.126169,-7.684165
5.111732,0.304374,-5.408695,-7.676683
5.144874,-0.065544,-5.296762,-8.254604
5.179749,-0.378297,-5.632411,-8.463057
5.211738,-0.306319,-5.861814,-8.266426
5.245229,0.374706,-5.804650,-7.774101
5.279398,0.783082,-5.574649,-7.803281
5.312367,0.781435,-5.209969,-8.239640
5.345570,0.374556,-5.158492,-8.706825
5.379084,-0.084997,-5.454635,-8.851680
5.413500,-0.482748,-5.934091,-8.372673
5.445319,-0.342982,-6.128028,-7.997967
5.479158,0.698533,-6.506326,-7.271450
5.511722,1.184274,-6.369851,-7.525245
5.545363,1.114840,-5.934839,-8.067401
5.579185,1.173949,-5.941872,-8.090745
5.611857,1.195498,-6.139551,-7.856105
5.645391,0.934969,-6.211529,-7.878402
5.679880,0.864487,-5.781455,-8.098527
5.712558,0.786374,-5.827246,-8.147011
5.745526,0.842340,-6.135062,-7.965344
5.777215,0.877806,-6.162895,-7.692096
5.810802,1.482213,-6.512461,-7.228802
5.844257,1.765487,-6.140748,-7.510879
5.877641,1.456624,-5.845802,-7.818096
5.910922,0.906088,-5.976739,-7.454164
5.944255,0.578819,-5.432488,-7.661420
5.977565,0.660075,-5.535293,-7.946938
6.010892,0.547544,-5.792379,-7.813158
6.044890,0.583009,-6.184743,-7.519408
6.077629,0.477062,-6.003675,-7.328314
6.110972,0.438304,-5.870044,-7.142757
6.144415,0.548292,-5.970155,-6.779873
6.180514,1.337209,-6.894649,-5.702144
6.212247,1.790478,-7.028430,-6.006069
6.245583,0.646308,-6.988326,-7.687308
6.278552,-0.230300,-7.980458,-8.499270
6.312419,-0.423340,-6.944929,-7.479753
6.346941,0.220723,-4.602418,-6.662703
6.379226,0.129890,-4.416562,-6.952561
6.414647,0.926290,-5.290028,-7.919105
6.446839,0.732951,-4.375111,-9.779466
6.478878,1.297704,-3.920496,-10.314140
6.513563,1.531296,-3.312496,-10.105987
6.545600,1.553144,-3.557013,-9.036189
6.577561,2.092008,-3.178416,-9.288936
6.613006,1.705780,-2.916840,-9.785751
6.646880,1.142374,-3.447773,-9.780214
6.677673,0.389820,-3.716532,-10.377589
6.711031,0.087242,-3.377142,-10.118108
6.744302,-0.051477,-3.864679,-9.467909
6.777703,0.629698,-4.355208,-9.033945
6.810961,-0.140066,-4.123112,-9.279509
6.844378,-0.118816,-3.849415,-9.827501
6.877642,0.181367,-4.245969,-9.647181
6.911057,0.238381,-3.964940,-9.697162
6.944385,0.795652,-3.355444,-9.254967
6.977917,1.308628,-3.103146,-8.282587
7.011029,1.715806,-2.798622,-7.782331
7.044318,2.236115,-2.747893,-8.397364
7.077692,2.534503,-3.036405,-8.770124
7.110986,2.399525,-3.184103,-8.675849
7.144968,2.184338,-2.985975,-8.529049
7.190427,-0.229552,-2.437384,-8.650260
7.210979,-0.210548,-2.584932,-8.912435
7.244250,-1.243383,-3.771451,-8.804991
7.277600,-1.492090,-4.073880,-8.553890
7.311212,-0.368571,-3.756337,-8.984712
7.344261,1.244431,-2.534802,-9.230725
7.377755,0.649301,-2.321261,-8.999976
7.410979,0.157275,-1.794518,-9.061329
7.444375,-0.045940,-1.044358,-10.001686
7.477658,-0.682372,-0.638078,-10.479795
7.511253,-1.787335,-0.529287,-10.281368
7.544326,-1.757856,-1.210911,-9.824209
7.577599,-0.763927,-0.935418,-9.745347
7.611179,-0.577921,-0.542007,-9.982382
7.644309,-0.590341,0.536320,-9.974750
7.677681,-0.610394,0.018406,-9.597051
7.710990,-1.569156,-0.127197,-10.139357
7.744310,-1.460964,0.233892,-11.215440
7.777612,-1.485506,0.095921,-11.348472
7.810979,-0.492176,-0.160268,-10.585143
7.844324,0.460900,-0.487237,-9.736219
7.877668,0.715892,0.866732,-8.603123
7.910931,1.191457,0.720680,-9.421969
7.944329,1.192654,0.727564,-9.292228
7.977656,-0.090833,-0.725319,-12.616247
8.010992,0.718585,-0.813309,-8.716552
8.044313,0.682372,-0.486340,-8.983365
8.077650,1.583671,-1.641433,-8.865447
8.110981,2.106673,-0.396703,-9.844860
8.144290,-0.712450,0.057313,-8.380155
8.178423,1.327932,-1.418465,-8.806637
8.210989,-0.669503,-0.585702,-9.897983
8.244315,-0.985100,1.132049,-10.339430
8.277683,0.726965,-1.595942,-9.456836
8.316546,1.300098,-1.470691,-9.026313
8.344208,0.734298,-1.255953,-8.936976
8.377583,1.739899,-2.159946,-8.920665
8.410947,2.528367,-0.435611,-13.183993
8.444277,1.097182,-4.645067,-9.414187
8.477599,1.646222,-3.687352,-8.988902
8.510979,2.226537,-5.501473,-8.198189
8.544249,3.336589,-4.927144,-9.129567
8.577697,1.980674,-4.378403,-11.114431
8.611003,0.952028,2.083778,-11.012973
8.644324,2.969365,0.927337,-9.770188
8.677661,1.583222,-2.114006,-9.331285
8.710988,0.289559,-0.584056,-8.228866
8.744611,-2.397430,-0.722775,-6.694577
8.777585,-1.189512,1.810530,-9.826903
8.810981,0.170294,1.084313,-10.243509
8.844317,1.438817,0.315298,-7.594529
8.877598,2.386356,-1.515284,-8.471886
8.911193,1.089550,-1.139980,-5.261895
8.944257,1.310573,-3.838641,-8.073387
8.977680,0.639125,-3.015305,-5.795671
9.010998,1.041066,-4.840800,-8.016822
9.044370,-0.028881,-2.374684,-7.146648
9.077652,0.804780,-0.899653,-4.290263
9.110983,2.509961,-3.476355,-13.356232
9.144251,1.146415,-0.088888,-10.117659
9.177683,1.514087,-1.948800,-7.930478
9.210929,1.886848,-1.239193,-13.783612
9.244295,1.642631,0.058061,-15.328526
9.277685,-0.247958,-0.816602,-12.727881
9.319814,-0.250353,0.236137,-10.664155
9.344224,-2.792038,0.178374,-12.214007
9.377527,-3.524391,1.190859,-9.745048
9.410875,-3.161806,0.633439,-8.794217
9.444176,-0.940656,0.136325,-11.982360
9.477550,-1.136688,1.314763,-10.278824
9.510971,-0.951430,-0.704220,-10.685404
9.544222,-1.408439,0.477960,-10.279722
9.578392,1.579781,-1.424451,-12.236304
9.610661,2.628778,-1.355316,-11.454719
9.644238,1.434178,-2.370943,-13.117850
9.677603,1.795715,-1.202980,-10.938450
9.710918,0.092779,-0.217730,-10.183951
9.744261,0.346723,1.366240,-8.707873
9.777574,0.193189,0.942751,-8.951491
9.810923,3.143549,0.545897,-18.323330
9.845271,1.630061,-2.358223,-9.371090
9.876934,0.734747,-1.184424,-9.353133
9.910923,0.693296,-0.668156,-10.372950
9.944285,0.954123,-1.026551,-9.388748
9.977595,1.525759,-0.907285,-10.413204
10.010930,1.136538,-1.656398,-10.053013
10.044276,1.882059,-1.865000,-9.753578
10.077612,2.018833,-2.172367,-9.377226
10.110933,1.482513,-2.126726,-9.696264
10.144482,1.299200,-1.410834,-9.706889
10.177488,1.083864,-0.506841,-9.632217
10.210014,0.837701,-1.793770,-9.752979
10.244317,0.431421,-2.198704,-10.045681
10.277558,0.049083,-0.877207,-9.792186
10.310963,1.184574,-0.475715,-9.911601
10.344273,4.483003,-1.986360,-9.833936
10.378568,5.768586,-2.446213,-8.707873
10.410876,0.940057,-3.411111,-8.965109
10.444222,1.591453,-2.926717,-9.268585
10.477131,0.057613,-3.305313,-10.140105
10.510856,1.744837,-0.848625,-9.057289
10.544219,1.940719,-1.921116,-9.583583
10.577401,1.832827,-1.804395,-9.342957
10.610869,0.673693,-2.836781,-9.521930
10.644222,1.009940,-2.078092,-9.297915
10.677574,1.804395,-0.679529,-9.405358
10.710889,-0.777844,-1.356813,-10.446873
10.744283,0.563705,-2.016439,-9.486016
10.777606,1.100025,-1.508551,-9.492301
10.810930,-0.718137,-2.062828,-10.168986
10.844330,-1.128308,-2.088716,-9.895888
10.877586,-0.350015,-1.936080,-9.801912
10.910912,0.395057,-2.223545,-9.552757
10.944486,-0.250652,-2.054897,-9.473296
10.977612,0.008230,-2.239257,-9.467011
11.010970,-0.182564,-1.794967,-9.732927
11.044341,-2.514301,-2.222497,-10.213730
11.077129,-1.091645,-2.219654,-9.681150
11.110951,-0.498161,-1.806639,-9.226535
11.144315,-1.411582,-2.460429,-9.663642
11.177560,-1.400808,-2.150519,-9.757917
11.210983,-1.439864,-2.139595,-9.556049
11.244273,-1.406045,-2.062080,-9.435437
11.277625,-1.343045,-2.112210,-9.585379
11.311190,-1.368784,-2.086023,-9.533902
11.344216,-1.350378,-2.110265,-9.446211
11.377616,-1.363846,-2.039484,-9.532854
11.410947,-1.363547,-2.117298,-9.538690
11.443990,-1.335713,-2.012847,-9.479132
11.477588,-1.344243,-1.932339,-9.452047
11.510929,-1.300098,-2.013895,-9.685789
11.544252,-1.354418,-2.077643,-9.557994
11.577783,-1.348283,-2.009106,-9.543329
11.619818,-1.400808,-2.136752,-9.706290
11.644282,-1.324340,-2.026764,-9.670975
11.677650,-1.365941,-2.053101,-9.558593
11.710960,-1.401855,-2.085424,-9.574455
11.744256,-1.409188,-2.089614,-9.570714
11.777625,-1.367437,-2.037838,-9.511306
11.810915,-1.328979,-1.979178,-9.453095
11.844061,-2.420924,-2.318717,-9.512802
11.877691,-1.825345,-2.581490,-9.444864
11.910944,-1.451088,-2.446812,-9.480928
11.944320,-0.638975,-1.708623,-9.411195
11.977600,-0.409722,-1.241288,-9.506068
12.010922,-1.245179,-2.129868,-9.417480
12.044258,-1.226474,-2.178801,-9.790839
12.077690,-1.240241,-2.197656,-9.681749
12.110937,-1.202531,-2.281307,-9.809993
12.144271,-1.226174,-2.229381,-9.619348
12.177683,-1.583372,-2.358074,-9.657656
12.210949,-0.685365,-2.023622,-9.697910
12.244264,-1.347235,-2.078690,-9.675763
12.277794,-1.223630,-2.107721,-9.545275
12.310924,-1.302642,-2.206036,-9.652419
12.344267,-1.193253,-2.116101,-9.566075
12.377607,-1.206272,-2.058039,-9.472399
12.410537,-1.204177,-2.043225,-9.553954
12.444267,-1.289773,-2.150220,-9.530011
12.477562,-1.204626,-2.162490,-9.544377
12.510887,-1.208367,-2.098144,-9.525671
12.543529,-1.279896,-2.081384,-9.407453
12.577545,-1.204326,-2.160395,-9.534800
12.610943,-1.198490,-2.188827,-9.559491
12.643868,-1.269720,-2.041279,-9.460128
12.677667,-1.250865,-2.127324,-9.631469
12.712632,-1.249369,-2.176257,-9.563082
12.744293,-1.233357,-2.249882,-9.632068
12.777653,-1.282141,-2.136303,-9.535249
12.811019,-1.293663,-2.121638,-9.661248
12.844343,-1.236949,-2.167428,-9.614260
12.877626,-1.241438,-2.109666,-9.584631
12.911017,-1.251314,-2.172067,-9.544227
12.944283,-1.315062,-2.162790,-9.609920
12.977690,-1.236649,-2.193766,-9.637754
13.010941,-1.236500,-2.111761,-9.458033
13.044217,-1.338257,-2.208131,-9.593759
13.077616,-1.219440,-2.121039,-9.418976
13.110927,-1.222284,-2.083329,-9.592113
13.144286,-1.258796,-2.106973,-9.643889
13.177636,-1.245628,-2.246889,-9.758965
13.210876,-1.217645,-2.233720,-9.640747
13.243459,-1.271366,-2.191970,-9.682647
13.277567,-1.240241,-2.232673,-9.569966
13.310990,-1.209863,-2.260506,-9.668431
13.344256,-1.190559,-2.143635,-9.646583
13.377647,-1.207918,-2.029308,-9.666186
13.410979,-1.220488,-2.087818,-9.679355
13.444263,-1.254307,-2.144084,-9.597500
13.477883,-1.248471,-2.155906,-9.494396
13.510938,-1.256851,-2.118495,-9.562783
13.544261,-1.244880,-2.167428,-9.633414
13.577682,-1.214053,-2.175958,-9.625184
13.610940,-1.245927,-2.073453,-9.522080
13.644249,-1.239642,-2.134956,-9.509211
13.677992,-1.196395,-2.061631,-9.569367
13.710917,-1.273910,-2.086771,-9.566524
13.744252,-1.262837,-2.110863,-9.565776
13.777672,-1.233058,-2.159198,-9.566674
13.818610,-1.278998,-2.168925,-9.534500
13.844273,-1.246526,-2.060583,-9.606778
13.877582,-1.257599,-2.072405,-9.696115
13.910945,-1.238744,-2.181794,-9.661248
13.944247,-1.257749,-2.058189,-9.638652
13.977653,-1.298452,-2.080187,-9.817924
14.010945,-1.253110,-2.148723,-9.664241
14.044295,-1.216597,-2.125528,-9.675464
14.077681,-1.280345,-2.101286,-9.496192
14.110948,-1.213305,-1.984415,-9.658554
14.144319,-1.213904,-2.079738,-9.740708
14.177689,-1.257899,-2.076296,-9.636108
14.211064,-1.235602,-2.043973,-9.518489
14.244257,-1.262986,-2.108319,-9.551111
14.277689,-1.213305,-2.023023,-9.720656
14.310885,-1.236051,-2.059386,-9.640896
14.344228,-1.111697,-2.022125,-9.530610
14.377688,-1.070695,-2.033648,-9.484669
14.410953,-1.115139,-2.058488,-9.455639
14.444282,-1.092992,-2.166381,-9.382014
14.477675,-1.035679,-2.092607,-9.440076
14.510938,-1.060220,-2.061930,-9.595106
14.544311,-1.045855,-2.153063,-9.545724
14.577613,-1.032387,-2.314527,-9.433940
14.610238,-1.017572,-2.324554,-9.417928
14.644445,-0.887981,-2.214865,-9.691775
14.677632,-0.887981,-2.369596,-9.475990
14.710983,-0.765424,-2.179250,-9.531956
14.744314,-0.845632,-2.186433,-9.587923
14.777714,-0.761533,-2.151417,-9.517591
14.810929,-0.802086,-2.273376,-9.506517
14.844293,-0.776048,-2.240604,-9.735920
14.877617,-0.734448,-2.164136,-9.635060
14.910992,-0.733400,-2.266043,-9.835283
14.950543,-0.612788,-2.286395,-9.560239
14.977604,-0.628500,-2.279511,-9.638353
15.010915,-0.669054,-2.324554,-9.822114
15.044253,-0.588546,-2.299563,-9.658554
15.077654,-0.464941,-2.353584,-9.652120
15.111006,-0.487237,-2.294924,-9.703148
15.144331,-0.483496,-2.179550,-9.538840
15.177635,-0.388323,-2.282354,-9.631469
15.211072,-0.389221,-2.212471,-9.565028
15.244241,-0.428278,-2.196758,-9.535099
15.277643,-0.260079,-2.318119,-9.435886
15.310946,-0.291056,-1.961220,-9.054745
15.344214,-0.413763,-2.138996,-9.231773
15.377693,-0.330861,-2.098892,-9.308240
15.411060,-0.330861,-2.258411,-9.753428
15.444322,-0.337744,-2.216960,-9.539888
15.477677,-0.466736,-2.217110,-9.466114
15.511012,-0.356749,-2.289088,-9.629374
15.544323,-0.336098,-2.135106,-9.411643
15.577741,-0.258433,-1.928299,-9.052949
15.610941,-0.357946,-2.186134,-9.628775
15.644268,-0.411668,-2.321710,-9.028408
15.677713,-0.436808,-2.234917,-9.454741
15.710935,-0.365578,-2.071058,-9.415235
15.744312,-0.465988,-2.256915,-9.484520
15.777771,-0.269058,-2.181046,-9.703597
15.810978,-0.311557,-2.126726,-9.394734
15.844277,-0.332507,-2.207682,-9.773480
15.877656,-0.301979,-2.083179,-9.797722
15.911324,-0.195733,-2.088567,-9.909805
15.944475,-0.343879,-2.313480,-9.623688
15.981567,-0.291205,-2.089913,-10.061543
16.010954,-0.384732,-2.217409,-9.962180
16.044251,-0.242571,-2.032750,-10.025329
16.077670,-0.309761,-1.885052,-9.433491
16.110916,-0.471974,-2.014643,-9.515496
16.144334,-0.366027,-1.994142,-9.660350
16.177643,-0.381290,-1.913933,-9.472847
16.211082,-0.356449,-1.929197,-9.390245
16.244283,-0.331010,-1.939373,-9.325599
16.277687,-0.387426,-1.944909,-9.511904
16.311048,-0.364830,-1.971995,-9.465066
16.344365,-0.274744,-1.945358,-9.588821
16.377679,-0.515370,-2.063277,-9.443368
16.410996,-0.478409,-2.279810,-8.998479
16.444300,-0.251550,-2.017636,-9.808646
16.477685,-0.372910,-2.221150,-9.720507
16.510909,-0.398200,-2.310487,-9.881822
16.544317,-0.352559,-2.530762,-9.608125
16.577881,-0.201868,-2.235516,-9.463869
16.610945,-0.340587,-2.132861,-9.743552
16.644316,-0.355103,-2.295822,-9.899330
16.677659,-0.237334,-2.265594,-9.950957
16.711146,-0.366925,-2.403715,-10.126637
16.744319,-0.315148,-2.036790,-9.371539
16.777606,-0.590940,-2.182243,-9.326048
16.810939,-0.376801,-2.089016,-10.356788
16.844309,-0.391167,-2.123733,-9.508911
16.877585,-0.270106,-2.323656,-9.759114
16.910984,-0.435311,-2.281307,-9.566823
16.944272,-0.532280,-2.312732,-9.207680
16.977644,-0.411668,-2.465816,-9.323803
17.010971,-0.326970,-2.368698,-9.257960
17.044705,-0.498610,-2.549018,-9.571761
17.077433,-0.393262,-2.237312,-9.571612
17.110982,-0.507140,-2.357475,-9.019878
17.151161,-0.554277,-2.327846,-9.314076
17.177644,-0.482299,-2.290884,-9.312879
17.210883,-0.446235,-2.248385,-9.511605
17.244503,-0.437257,-2.036641,-9.134654
17.277687,-0.376202,-2.315126,-9.556498
17.310905,-0.362136,-2.327995,-9.824508
17.344273,-0.372312,-2.206934,-9.692074
17.377571,-0.197529,-2.246440,-9.456836
17.410946,-0.356449,-2.423019,-9.853539
17.444324,-0.131686,-2.067916,-9.865361
17.477618,-0.396105,-2.388750,-9.734124
17.510977,-0.282975,-2.533006,-9.843812
17.544328,-0.413015,-2.417033,-9.892297
17.577687,-0.404635,-2.300461,-10.112122
17.610985,-0.423190,-2.385608,-9.805354
17.644492,-0.387725,-2.436337,-10.018895
17.676938,-0.227008,-2.104578,-9.304350
17.710979,-0.415558,-2.406259,-9.613213
17.744355,-0.472123,-2.232972,-9.889753
17.777803,-0.426033,-2.122835,-9.697312
17.810996,-0.328915,-2.078989,-9.898731
17.844488,-0.424836,-2.026315,-9.730682
17.877584,-0.422891,-2.017037,-9.578046
17.910989,-0.368571,-1.926653,-9.127322
17.944286,-0.620719,-1.881610,-9.634312
17.977606,-0.319338,-1.874128,-9.121486
18.010983,-0.454017,-1.593248,-9.383361
18.044266,-0.443691,-1.679892,-9.135702
18.077689,-0.365578,-1.568258,-8.715654
18.110952,-0.425585,-1.875774,-9.875986
18.144263,-0.295694,-2.118346,-10.332397
18.177388,-0.460002,-1.670464,-9.856831
18.212634,-0.379794,-1.832228,-9.507714
18.244221,-0.234191,-2.067617,-9.351038
18.277824,-0.444140,-2.099939,-10.142799
18.310932,-0.331010,-2.191222,-9.490655
18.344277,-0.320086,-2.039933,-9.642991
18.377698,-0.291804,-2.266043,-10.487277
18.411050,-0.303626,-1.942365,-9.563830
18.443539,-0.419748,-2.093505,-9.450850
18.477787,-0.496515,-2.034845,-10.403776
18.510927,-0.270255,-1.904506,-9.865511
18.544369,-0.360340,-2.354183,-9.292677
18.577649,-0.575976,-2.452798,-9.459529
18.610971,-0.321583,-2.199751,-9.786349
18.644314,-0.448480,-2.237761,-9.689680
18.677429,-0.494869,-2.256466,-9.604833
18.710154,-0.336697,-2.223694,-9.386055
18.744257,-0.495318,-2.370644,-8.873976
18.777603,-0.518064,-2.366454,-9.503973
18.810987,-0.498012,-2.388451,-9.022871
18.844263,-0.405233,-2.362413,-9.186880
18.877647,-0.460601,-2.346252,-9.244642
18.910990,-0.301531,-2.607678,-9.763304
18.943976,-0.456860,-2.713775,-10.108531
18.978307,-0.349416,-2.938239,-10.078452
19.010936,-0.568494,-2.708537,-10.201609
19.043781,-0.511480,-2.568472,-9.750585
19.077683,-0.432468,-2.527020,-9.563082
19.110947,-0.360191,-2.589122,-10.039246
19.144279,-0.437257,-2.737718,-10.058999
19.177642,-0.701077,-2.744003,-10.069624
19.210927,-0.360640,-2.766449,-10.157913
19.244287,-0.262474,-2.651673,-10.274934
19.277656,-0.316644,-2.490059,-9.816278
19.319116,-0.508786,-2.490508,-9.950957
19.344034,-0.402091,-2.422420,-9.775126
19.377616,-0.351811,-2.384560,-9.705692
19.411010,-0.396703,-2.121638,-9.447109
19.444342,-0.391017,-2.256466,-9.477786
19.477609,-0.504895,-2.610072,-10.025629
19.510954,-0.395656,-2.292380,-9.799219
19.544269,-0.315896,-2.233571,-9.661547
19.577595,-0.442644,-2.193017,-9.145429
19.610993,-0.577921,-2.109068,-9.405358
19.644258,-0.410620,-2.078391,-9.470603
19.677557,-0.472722,-2.389798,-9.449054
19.710978,-0.434264,-2.065073,-9.909206
19.744284,-0.646158,-2.178502,-9.722003
19.777655,-0.445038,-1.876373,-9.291779
19.810925,-0.449228,-2.152315,-9.159944
19.843410,-0.379794,-1.963615,-9.513550
19.877688,-0.549788,-1.921565,-9.500232
19.911090,-0.414661,-2.155607,-9.797722
19.944256,-0.487686,-1.845247,-9.477786
19.977641,-0.575676,-2.037389,-9.909506
20.010996,-0.407178,-2.033199,-9.839473
20.044218,-0.366176,-1.893731,-9.951406
20.077644,-0.404635,-1.921864,-9.829297
20.111160,-0.593933,-2.041279,-9.129866
20.144203,-0.330561,-2.231775,-10.021439
20.177626,-0.403587,-2.159797,-9.700305
20.210935,-0.525247,-2.105327,-9.337870
20.244260,-0.586900,-2.204989,-9.230127
20.277620,-0.301830,-2.001774,-9.879128
20.310946,-0.431421,-2.136153,-9.850097
20.343302,-0.480204,-2.253174,-9.739960
20.377541,-0.638526,-2.664243,-9.527168
20.410512,-0.492325,-2.240753,-9.032149
20.444240,-0.168498,-2.018534,-9.400420
20.477661,-0.419449,-2.328594,-9.133906
20.510919,-0.224764,-2.195262,-9.821665
20.544499,-0.595579,-2.261105,-9.240452
20.577854,-0.227008,-2.224891,-10.619412
20.611085,-0.520309,-2.404014,-9.578046
20.644311,-0.519860,-2.392491,-9.277563
20.677708,-0.496066,-2.266193,-9.696713
20.710895,-0.308264,-2.559942,-9.991510
20.744479,-0.621018,-2.361366,-9.768692
20.777667,-0.654987,-2.581640,-10.043137
20.810979,-0.582710,-2.688186,-9.968315
20.844357,-0.478558,-2.458783,-9.594358
20.877615,-0.473620,-2.448757,-9.702400
20.911026,-0.576275,-2.540638,-9.480180
20.944420,-0.285519,-2.383064,-9.911900
20.977661,-0.170294,-2.576403,-9.824957
21.011046,-0.210548,-2.397130,-9.078089
21.043816,-0.303626,-1.798110,-8.544313
21.077711,-0.274595,-2.574457,-9.842316
21.111166,0.107144,-2.207682,-10.309052
21.144241,-0.008979,-2.059835,-9.670975
21.177648,-0.291654,-2.288041,-9.268286
21.210993,-0.198427,-2.155307,-8.994589
21.244595,-0.089786,-2.193167,-9.462522
21.277620,0.152785,-1.857069,-9.440525
21.310984,-0.051776,-1.939522,-9.409848
21.344490,-0.314849,-2.368698,-10.293789
21.377688,0.073325,-2.465816,-10.186644
21.410916,0.057164,-1.927700,-9.344005
21.444132,-0.213092,-2.100089,-9.496790
21.477563,-0.245564,-2.204839,-9.126723
21.512973,-0.104151,-2.043823,-9.132260
21.544228,0.059408,-2.022125,-9.742654
21.577519,-0.172538,-2.081084,-9.355078
21.610950,-0.003891,-2.265145,-9.244043
21.644254,0.040553,-1.977681,-9.534351
21.677665,-0.109688,-2.262751,-9.618899
21.710995,-0.280431,-2.203941,-8.802597
21.744603,-0.054470,-1.729124,-9.473895
21.777643,-0.161465,-2.143037,-9.373933
21.810963,-0.125700,-2.070310,-9.461026
21.844178,-0.058510,-2.006562,-9.535697
21.877642,-0.207555,-2.161293,-9.617253
21.910897,-0.257236,-2.399974,-9.417330
21.943965,-0.036513,-2.188977,-9.606179
21.977649,-0.050430,-2.285946,-9.701652
22.010980,-0.130189,-2.422420,-9.670975
22.044267,-0.063748,-2.190623,-9.644638
22.077554,-0.178225,-2.320962,-9.763604
22.110920,-0.145154,-2.433943,-9.802960
22.144255,-0.093676,-2.381418,-9.982681
22.177683,-0.131985,-2.388451,-9.753727
22.210918,-0.229852,-2.437384,-9.856532
22.244314,-0.155030,-2.636409,-10.078004
22.277722,-0.106246,-2.510560,-9.851594
22.310104,-0.221621,-2.430800,-9.307642
22.344326,0.004639,-2.265445,-9.449653
22.377544,-0.267262,-2.394736,-9.421370
22.410927,-0.336846,-2.405510,-9.722302
22.444336,-0.077066,-2.413591,-9.406406
22.477876,-0.080209,-2.292081,-9.369145
22.510927,-0.088738,-2.325900,-9.784404
22.544328,-0.108940,-2.087070,-9.374233
22.577667,-0.212792,-2.169224,-9.758965
22.610928,-0.111933,-2.534353,-9.960534
22.644294,0.092629,-1.945957,-9.953800
22.680926,0.009278,-2.038885,-9.857280
22.710897,-0.366027,-2.223993,-9.488410
22.744251,0.056715,-2.595258,-9.873591
22.777555,-0.148595,-2.003569,-9.726941
22.810916,-0.155479,-1.828936,-9.615756
22.844214,-0.129591,-2.371990,-9.587025
22.877665,0.015862,-2.403864,-9.809394
22.910984,-0.107294,-1.791226,-9.795029
22.944396,-0.117919,-2.065971,-9.693571
22.977624,-0.239878,-2.368698,-9.619198
23.010795,-0.017808,-2.146478,-10.026526
23.044342,-0.140066,-2.185086,-9.342060
23.077646,-0.142161,-2.160844,-9.972056
23.111057,-0.123904,-2.044272,-9.640896
23.144156,-0.075270,-2.229979,-8.984263
23.177649,-0.091282,-2.514151,-10.021439
23.211034,-0.188400,-2.129269,-10.370705
23.244261,-0.097567,-2.188378,-9.595255
23.277621,-0.053423,-2.154559,-9.596153
23.311083,-0.112831,-2.330240,-9.952154
23.344252,-0.019903,-2.163687,-9.607526
23.377623,-0.132584,-2.444866,-9.654065
23.410947,-0.232545,-2.452049,-9.971458
23.444313,-0.056864,-2.491705,-9.843962
23.477604,-0.070631,-2.380520,-9.647930
23.510924,-0.171790,-2.300760,-9.594058
23.544324,-0.153534,-2.535550,-9.399522
23.577573,0.037411,-2.524626,-10.120502
23.610921,-0.207854,-2.553358,-9.944372
23.644407,-0.368870,-2.493949,-9.541833
23.677661,0.024990,-2.573110,-9.192417
23.710885,-0.028881,-2.335777,-9.520883
23.744267,-0.265317,-2.232074,-9.922973
23.781721,-0.526294,-2.436786,-9.669927
23.810894,-0.256189,-2.310038,-9.349093
23.844253,-0.167301,-2.454893,-9.634462
23.877690,-0.158023,-2.330390,-9.963078
23.911024,0.026487,-2.280110,-9.375280
23.944337,-0.008081,-2.143486,-9.551410
23.977592,-0.151139,-2.351489,-9.764651
24.010918,-0.206358,-2.244794,-9.232371
24.044342,-0.221920,-2.199901,-9.732328
24.077648,-0.135427,-1.858865,-9.356874
24.110930,-0.240925,-2.207982,-9.243894
24.144260,-0.271003,-2.155008,-9.253321
24.177648,-0.063598,-2.198255,-9.911601
24.210997,-0.182415,-2.170721,-9.675165
24.244250,-0.118667,-2.175060,-9.503375
24.277780,-0.166403,-2.310038,-9.607526
24.310862,-0.328017,-2.442771,-9.670975
24.344262,-0.163709,-2.556650,-9.901275
24.377700,-0.024093,-2.115652,-9.738763
24.410999,-0.245714,-2.316772,-9.633863
24.444253,-0.059708,-2.238509,-9.742953
24.477635,-0.011074,-2.008657,-9.751034
24.511005,-0.095023,-2.020928,-9.833038
24.544194,-0.116871,-2.270233,-9.482574
24.577560,-0.080658,-2.225340,-9.539439
24.611000,-0.046389,-2.183740,-9.262599
24.644253,-0.085895,-2.166830,-9.388898
24.677670,-0.205759,-1.999379,-9.320361
24.711039,-0.179871,-2.010154,-9.267238
24.744378,-0.234640,-2.281905,-9.595255
24.777585,-0.200073,-2.285048,-9.543778
24.810527,-0.287913,-2.233720,-9.593460
24.848943,-0.051627,-2.240454,-9.608424
24.877549,-0.147997,-2.445016,-9.446959
24.910973,-0.143508,-2.247487,-9.458781
24.944253,-0.031575,-2.464769,-9.761060
24.977600,-0.171640,-2.521633,-9.994353
25.010931,-0.246612,-2.596904,-9.852043
25.044233,-0.172089,-2.212321,-9.389347
25.077612,-0.226260,-2.571614,-10.351252
25.110925,-0.121360,-2.278912,-9.219951
25.144259,-0.209051,-2.379921,-9.342359
25.177647,-0.227158,-2.496194,-9.459380
25.211007,-0.060156,-2.666637,-9.421221
25.244251,-0.076468,-2.437085,-9.800715
25.277611,-0.063598,-2.489011,-9.774079
25.310422,-0.318141,-2.360468,-9.259157
25.344251,-0.059558,-2.168925,-9.333231
25.377690,-0.093527,-2.190025,-9.486166
25.410916,-0.290457,-2.201996,-9.370641
25.444336,-0.187503,-2.153212,-9.406256
25.477620,-0.121510,-2.292680,-8.988603
25.510512,-0.097717,-2.234917,-9.468209
25.544285,-0.373958,-2.094552,-9.716317
25.577655,0.015114,-2.225640,-9.696115
25.610651,0.040254,-2.539441,-9.827950
25.644322,-0.244666,-2.489460,-9.915192
25.677599,-0.161614,-2.700756,-9.737416
25.710227,0.006435,-2.352237,-9.765998
25.744316,-0.131237,-2.407755,-10.099552
25.777671,-0.294348,-2.274872,-9.547519
25.810920,-0.274445,-2.308093,-9.723200
25.844325,-0.079311,-1.904805,-9.555450
25.877617,-0.038907,-2.108020,-10.147139
25.910994,-0.104750,-2.171319,-9.178200
25.944928,-0.051028,-1.947603,-9.220699
25.977586,0.149194,-2.112958,-9.597201
26.011023,-0.043546,-2.116101,-9.709283
26.044302,-0.059558,-1.968703,-9.461175
26.077548,-0.064945,-2.069113,-9.297316
26.110919,-0.172987,-2.114604,-9.263198
26.144284,-0.123455,-2.018683,-9.542132
26.177625,-0.075420,-1.922762,-9.466712
26.210913,-0.212643,-2.155607,-9.482574
26.244285,-0.163560,-2.111911,-9.312879
26.277658,0.004340,-1.979327,-9.671424
26.310951,-0.030078,-2.155158,-9.838874
26.344315,-0.170144,-2.055944,-8.855421
26.377480,-0.116871,-2.282803,-9.641944
26.411053,-0.113878,-2.376031,-9.506966
26.444332,-0.019304,-2.179550,-9.672770
26.477500,-0.098166,-2.282354,-9.770188
26.511033,-0.146800,-2.269934,-9.432444
26.544242,-0.095921,-2.261703,-9.811489
26.577650,-0.206657,-2.146478,-9.731281
26.610979,-0.226410,-2.463721,-9.855185
26.644004,-0.038758,-2.449655,-9.959935
26.677659,-0.157873,-2.291183,-9.653018
26.710951,-0.290607,-2.538543,-9.527018
26.744262,-0.087990,-2.636260,-9.615158
26.777698,0.073475,-2.481529,-9.698210
26.811145,-0.104451,-2.531659,-9.416881
26.844315,-0.230899,-2.727392,-9.779915
26.877669,-0.147997,-2.707340,-9.658554
26.910861,-0.159370,-2.495446,-9.299262
26.944262,-0.094425,-2.399375,-9.475840
26.977168,-0.206358,-2.567873,-9.258110
27.017813,-0.066741,-2.369147,-9.317967
27.044226,-0.089038,-2.235366,-9.133158
27.077594,-0.313203,-2.333682,-9.336972
27.110863,0.026636,-2.228932,-9.353432
27.144254,-0.181218,-2.293877,-9.049208
27.177619,-0.410920,-2.495296,-9.534351
27.210919,-0.295545,-2.405061,-9.348644
27.244312,-0.051178,-2.486467,-9.374233
27.277673,0.045940,-2.368249,-9.574455
27.310993,-0.114776,-2.496643,-9.599146
27.344366,-0.217282,-2.368698,-10.333893
27.377726,-0.183013,-2.452199,-9.908608
27.411579,-0.056116,-2.387104,-10.040593
27.444330,-0.269806,-2.511757,-10.403627
27.476705,-0.243170,-2.264098,-9.839323
27.511098,-0.092928,-2.294176,-9.558892
27.544316,-0.067938,-2.454144,-10.088479
27.577567,-0.146351,-2.121488,-9.466263
27.610926,-0.240776,-2.198255,-8.996235
27.644289,-0.136624,-1.935332,-9.545424
27.677671,-0.001646,-1.920817,-9.193464
27.710925,-0.126598,-1.987408,-10.143098
27.744459,-0.122558,-1.899568,-9.949161
27.777648,-0.154581,-1.670913,-9.799219
27.810927,-0.139318,-1.937427,-8.862753
27.844332,-0.319488,-1.966757,-9.623089
27.877408,-0.091282,-1.903159,-9.389945
27.911082,0.116572,-1.538030,-8.801549
27.944408,0.004340,-2.032002,-9.656609
27.977564,-0.257685,-2.201248,-9.266340
28.010869,-0.095921,-1.953888,-9.233568
28.044310,-0.027085,-2.201846,-9.909206
28.077528,-0.285369,-2.394437,-9.583583
28.110908,-0.122109,-2.001624,-9.333380
28.144324,-0.115225,-2.037089,-9.913546
28.177525,-0.225362,-2.508914,-9.782459
28.210859,-0.245115,-2.456988,-9.518638
28.244200,-0.109389,-2.307794,-9.402815
28.277526,-0.144256,-2.418679,-9.547220
28.310867,-0.200222,-2.415686,-9.545424
28.344229,-0.307816,-2.301509,-9.571761
28.377563,-0.155030,-2.258860,-9.561885
28.410895,-0.074672,-2.401470,-9.612015
28.444263,-0.238531,-2.401620,-9.924769
28.477588,-0.203963,-2.380969,-9.489159
28.510882,-0.086494,-2.245392,-9.792036
28.544251,-0.094874,-2.649279,-9.755224
28.577775,-0.000898,-2.667386,-9.760162
28.610982,-0.145004,-2.460579,-9.732478
28.645027,-0.055667,-2.415237,-9.558743
28.677656,0.005686,-2.435289,-9.726642
28.711010,-0.065993,-2.446363,-9.437083
28.744213,-0.153384,-2.517892,-9.339516
28.777645,-0.241524,-2.562935,-9.659752
28.811185,-0.149194,-2.211274,-9.532854
28.844317,-0.110885,-2.238060,-9.110113
28.877698,-0.206208,-2.282354,-9.285046
28.910993,-0.308115,-2.307943,-9.610070
28.944827,-0.024392,-2.081384,-9.261252
28.977655,-0.195583,-2.306746,-9.025116
29.010981,-0.423340,-2.193616,-9.543479
29.044118,-0.294797,-2.051156,-9.422418
29.077747,-0.139617,-2.213967,-9.600493
29.111103,-0.209051,-2.264397,-9.657956
29.144261,-0.248707,-2.342511,-9.673070
29.177740,-0.034867,-2.095600,-9.632965
29.217947,-0.280581,-2.497092,-9.648528
29.244227,-0.223118,-2.548270,-9.645086
29.277597,-0.003292,-2.080336,-9.366302
29.310969,0.179572,-2.251977,-9.402066
29.344318,-0.011223,-2.075398,-9.810891
29.377826,-0.088738,-2.271131,-10.239917
29.410983,-0.335649,-2.436038,-9.824508
29.444325,0.484993,-1.738103,-9.928810
29.477692,-0.025439,-2.275620,-9.933748
29.511005,0.439651,-1.498973,-10.068875
29.544262,-0.189598,-1.947753,-9.694918
29.577613,-0.086793,-2.251079,-9.270081
29.610918,-0.170294,-2.144982,-9.789193
29.644251,-0.132135,-1.882359,-9.497090
29.677623,-0.173885,-2.164436,-9.496192
29.711627,-0.156227,-2.297917,-9.856831
29.744331,-0.163260,-2.135106,-9.502926
29.777750,-0.398050,-2.090662,-9.455339
29.810921,-0.476313,-2.996899,-10.640362
29.844474,-0.173287,-2.710632,-10.056605
29.877485,-0.278934,-2.195262,-9.300908
29.910988,-0.394459,-2.662597,-9.601091
29.944317,-0.260229,-2.737568,-9.744000
29.978373,-0.069883,-2.380969,-9.546023
30.011007,-0.164458,-2.313330,-9.576251
30.044387,-0.215037,-2.602889,-9.667234
30.077660,-0.215037,-2.642246,-9.521032
30.111161,-0.169545,-2.529265,-9.773630
30.143791,-0.183612,-2.515797,-9.934197
30.177590,-0.252448,-2.391145,-9.898133
30.210944,-0.115824,-2.359121,-9.448605
30.244045,-0.094425,-2.342062,-9.712426
30.277639,-0.082154,-2.366603,-9.905316
30.310878,-0.569691,-3.210739,-9.700005
30.344168,-0.092629,-2.364209,-9.821516
30.377556,-0.220274,-2.629526,-9.424812
30.410894,-0.129591,-2.280409,-9.600942
30.444200,-0.133930,-2.225640,-9.314525
30.477595,-0.178225,-2.171618,-9.371689
30.510989,-0.148595,-2.231925,-9.244941
30.544295,-0.123306,-2.094103,-9.262150
30.578656,-0.123755,-2.083778,-9.064472
30.610937,-0.210847,-2.150668,-9.136749
30.644280,0.053572,-2.007610,-9.323653
30.677575,-0.015264,-2.307943,-9.407005
30.710930,-0.061354,-2.304801,-9.801912
30.743763,-0.068686,-2.088118,-9.444715
30.777580,-0.041002,-1.964812,-9.236561
30.810917,-0.056116,-2.070310,-9.763304
30.844599,-0.097567,-2.194364,-9.903670
30.877579,-0.117021,-1.977532,-9.622341
30.910917,-0.119565,-2.046667,-9.812088
30.943527,-0.184959,-2.148125,-9.897085
30.977651,-0.206208,-2.214566,-9.589719
31.010879,-0.023644,-1.984265,-9.898282
31.044222,-0.064795,-2.290435,-10.233333
31.077662,-0.166553,-2.490508,-9.669329
31.110944,-0.194386,-2.163837,-9.608125
31.144260,-0.140814,-2.237611,-9.842017
31.177586,-0.073774,-2.383812,-9.711378
31.211503,-0.183462,-2.317221,-9.716765
31.244310,-0.148595,-2.387104,-9.387102
31.277974,-0.074672,-2.266043,-9.407603
31.310757,-0.213241,-2.411945,-9.349991
31.344310,-0.102655,-2.381268,-9.251675
31.377656,-0.256937,-2.370195,-9.338618
31.410925,-0.135726,-2.239107,-9.070907
31.444316,-0.123007,-2.329641,-9.360615
31.481606,-0.147099,-2.399974,-9.885413
31.510888,-0.082902,-2.075248,-9.485118
31.544250,-0.074223,-2.355081,-9.272176
31.577534,-0.272649,-2.435289,-9.933748
31.610920,-0.019304,-2.166082,-9.604533
31.644284,-0.009278,-2.190473,-9.256763
31.677649,-0.252298,-2.333083,-9.548268
31.710928,-0.321732,-2.277117,-9.640298
31.744278,-0.200821,-2.778570,-10.072167
31.777634,0.209350,-2.589422,-10.104191
31.810691,-0.086045,-2.571764,-9.215013
31.844325,-0.373958,-2.635512,-10.316983
31.877637,-0.230899,-3.165846,-9.969213
31.910931,-0.188101,-2.441125,-9.323055
31.944623,-0.397901,-2.945721,-9.990163
31.977691,-0.304224,-2.610671,-10.075460
32.010916,-0.000299,-2.468211,-9.657058
32.044323,-0.365129,-2.155457,-9.478534
32.077463,-0.272350,-2.433793,-9.937788
32.110979,-0.239578,-2.168177,-9.215611
32.144323,-0.227757,-2.212920,-9.827501
32.178297,-0.140066,-2.316024,-9.706440
32.210974,-0.011822,-2.704647,-9.410446
32.244241,-0.057014,-2.613364,-9.556049
32.277594,-0.067339,-2.194215,-9.262001
32.310927,-0.293749,-2.500683,-9.728138
32.344271,-0.181218,-2.681901,-9.462522
32.377593,0.026188,-2.528218,-9.367499
32.410978,-0.230600,-2.222048,-9.321409
32.444374,-0.238381,-2.487215,-10.014256
32.477593,-0.098914,-2.668732,-10.143846
32.510904,-0.001197,-2.370195,-10.055258
32.550587,-0.197379,-2.327995,-9.804756
32.577564,-0.121809,-2.405959,-9.598847
32.610992,-0.052824,-2.323506,-10.066032
32.644250,-0.094125,-1.836867,-9.497539
32.677561,-0.138120,-1.871435,-9.483622
32.710926,-0.140066,-1.927551,-9.159345
32.744197,-0.144405,-2.332185,-9.653466
32.777589,-0.232246,-2.119543,-9.661996
32.810976,-0.286566,-1.768480,-9.241051
32.844298,-0.184959,-1.888195,-9.541683
32.877636,-0.035615,-1.922463,-9.088265
32.910980,-0.283723,-2.201846,-9.219801
32.944066,-0.198127,-2.008208,-9.691775
32.977561,-0.059408,-2.080785,-9.455489
33.010923,-0.110137,-2.313929,-9.429002
33.044266,-0.114626,-2.110414,-9.236112
33.077753,-0.165505,-1.986809,-9.251226
33.110928,-0.102805,-2.168326,-9.601540
33.144264,-0.077814,-2.224891,-9.506068
33.177813,-0.074672,-2.001175,-9.119241
33.210803,-0.192441,-2.187181,-9.336672
33.244293,-0.198127,-2.307195,-9.551560
33.277839,0.000000,-2.250780,-9.562933
33.310875,-0.257386,-2.023322,-9.144830
33.344349,-0.234640,-2.188678,-9.646882
33.377729,-0.174334,-2.222497,-9.315124
33.410894,-0.068985,-2.407456,-9.800865
33.444220,-0.015264,-2.370494,-9.133607
33.477647,-0.160118,-2.791589,-10.340477
33.510658,0.070183,-2.710183,-9.708834
33.544500,-0.046090,-2.442323,-10.075160
33.587078,-0.329514,-2.585082,-9.512802
33.610897,-0.256488,-2.586578,-9.954997
33.644248,-0.124204,-2.630124,-10.413353
33.677564,-0.220723,-2.786950,-9.790839
33.710913,-0.225213,-2.681153,-10.080398
33.744392,-0.001197,-2.129718,-9.586875
33.777556,-0.156078,-2.257364,-9.686238
33.811182,-0.395357,-2.452947,-9.417928
33.844288,-0.163859,-2.873743,-9.595255
33.877581,-0.099213,-2.561887,-9.370192
33.910953,-0.155778,-2.244495,-9.174759
33.944274,-0.046090,-2.258860,-9.957840
33.977646,-0.140215,-2.640450,-9.099638
34.010955,-0.171940,-2.434242,-10.030866
34.044489,-0.017359,-2.343409,-9.932102
34.077494,-0.054769,-2.082431,-9.403263
34.110901,-0.065693,-2.370644,-9.993605
34.144244,-0.183163,-2.362264,-9.247186
34.177702,-0.157574,-2.323057,-9.316620
34.210846,-0.200821,-2.180447,-9.667982
34.244193,-0.081256,-2.065222,-9.615756
34.277552,-0.117919,-2.196310,-9.448905
34.310860,-0.160417,-2.276817,-9.573108
34.344188,-0.111035,-2.309589,-9.888556
34.377589,-0.115524,-2.158749,-9.622041
34.410869,-0.210997,-2.276817,-9.620096
34.444424,-0.086643,-2.428406,-9.639999
34.477649,-0.037261,-2.223993,-9.671124
34.510955,-0.158472,-1.927551,-9.671723
34.544259,0.190795,-1.877271,-9.716765
34.577555,0.000150,-1.917225,-9.566823
34.610956,-0.284771,-2.042477,-9.574904
34.644453,-0.115674,-2.078391,-9.595555
34.677592,-0.037710,-2.114754,-9.360615
34.711005,-0.019454,-1.768181,-9.284896
34.751438,-0.171640,-1.898819,-9.530161
34.777547,-0.154132,-2.248086,-9.704644
34.810914,-0.031575,-2.275022,-9.397727
34.844278,-0.080358,-2.116550,-8.993092
34.877585,-0.072726,-2.210226,-9.632217
34.910854,-0.070781,-2.150668,-9.665737
34.944293,-0.224764,-2.259608,-9.540935
34.977645,-0.082453,-2.137799,-9.414636
35.011500,-0.350613,-2.503227,-9.631020
35.044283,-0.239578,-2.460429,-10.170333
35.077816,-0.199624,-2.178053,-9.072253
35.111051,-0.178823,-2.531360,-9.136749
35.144018,-0.142011,-2.221450,-10.002733
35.177584,-0.195284,-2.790542,-10.102844
35.211056,-0.128543,-2.482876,-9.635360
35.244242,0.062401,-2.226388,-9.835432
35.277644,-0.038159,-2.744452,-9.933598
35.310990,-0.241823,-2.409251,-10.233333
35.343854,-0.214887,-2.348197,-9.609471
35.377528,-0.058361,-2.433494,-9.073002
35.410083,-0.036363,-2.637906,-9.909955
35.444201,-0.154880,-2.282354,-9.448755
35.477490,0.026936,-2.256017,-8.930691
35.510924,-0.153234,-2.387404,-9.688782
35.544177,-0.155778,-2.479733,-10.113020
35.577530,-0.119116,-2.470904,-9.555450
35.610897,-0.172538,-2.315126,-9.650474
35.644193,-0.169396,-2.289687,-9.635210
35.677549,-0.153833,-2.285497,-9.272027
35.710857,-0.201719,-2.339219,-9.329190
35.744293,-0.276690,-2.359121,-9.280706
35.777560,-0.214289,-2.399974,-9.490206
35.811429,-0.089187,-2.216661,-9.501878
35.844219,-0.176429,-2.338470,-9.682348
35.877559,-0.131237,-2.208131,-9.560089
35.910884,-0.142460,-2.262601,-9.738464
35.944236,-0.289709,-2.360169,-9.632516
35.977726,-0.243170,-2.056992,-9.555301
36.010933,-0.087391,-2.289537,-9.633115
36.044371,-0.082902,-2.070011,-9.460427
36.078616,-0.021549,-2.133908,-9.611566
36.110878,-0.017508,-2.123134,-9.184785
36.144227,-0.153384,-2.332634,-9.584182
36.177604,-0.157424,-2.279960,-9.821216
36.210909,0.043845,-2.189576,-9.799069
36.244232,-0.122558,-2.225191,-9.490356
36.277900,-0.173586,-2.234020,-9.422119
36.310878,-0.132135,-2.046367,-9.585229
36.344344,-0.220125,-2.305998,-9.815380
36.378379,-0.249604,-2.417332,-9.680103
36.410789,-0.117619,-2.234468,-9.135852
36.445322,0.009876,-2.226837,-9.431097
36.477628,-0.215635,-2.385309,-10.010365
36.510924,-0.001646,-2.188827,-9.132709
36.544363,-0.106995,-1.985912,-9.130614
36.577365,-0.155928,-2.293727,-9.504572
36.610887,-0.139767,-2.252875,-9.499933
36.644346,-0.111035,-2.020329,-9.535398
36.677382,-0.096520,-2.178652,-9.365853
36.711373,-0.165056,-2.344606,-9.708984
36.744958,-0.116273,-2.442472,-9.776024
36.777575,-0.142011,-2.251228,-9.539289
36.810895,-0.020202,-1.964213,-8.796162
36.844637,-0.150990,-2.260506,-9.543479
36.877549,-0.178674,-2.496643,-10.052714
36.911741,-0.244966,-2.137051,-9.686089
36.950785,-0.159070,-2.563683,-10.252038
36.977810,-0.063449,-2.386206,-9.758516
37.010881,-0.166253,-2.315725,-9.262001
37.044694,-0.161465,-2.232822,-9.355527
37.077553,-0.097268,-2.380520,-9.730084
37.111699,-0.098315,-2.231775,-9.517890
37.146542,-0.198427,-2.331587,-9.584182
37.177584,-0.117619,-2.399375,-9.960534
37.210896,-0.018705,-2.022574,-9.595106
37.245092,-0.077515,-2.063876,-9.377375
37.278184,0.040254,-2.064324,-9.684443
37.311339,-0.165206,-2.121338,-9.579543
37.345053,-0.121510,-2.203193,-9.435137
37.377772,-0.116871,-2.214716,-9.659303
37.411451,-0.218928,-2.364658,-9.660200
37.446094,-0.178674,-2.287292,-9.366900
37.478229,-0.046539,-1.991149,-9.261252
37.510924,-0.059408,-2.230428,-9.867456
37.544237,-0.004639,-2.389499,-9.559790
37.577839,-0.003591,-1.987258,-9.184486
37.611838,-0.218030,-2.290734,-9.433791
37.644998,-0.192291,-2.423916,-10.130678
37.678402,-0.102206,-2.081084,-9.621293
37.712766,-0.080658,-2.122835,-9.974301
37.744568,-0.055966,-2.356128,-10.132324
37.778125,-0.094125,-2.533904,-9.538690
37.812474,-0.202018,-2.418380,-9.293725
37.844618,-0.074672,-2.255418,-9.756570
37.878612,0.478109,-2.681153,-9.747143
37.911515,-0.219377,-2.157253,-9.522828
37.945593,-0.081555,-2.267240,-9.534201
37.978808,0.187503,-2.874940,-9.730682
38.015061,-0.128693,-2.389050,-9.722602
38.044470,-0.068536,-2.386356,-9.596303
38.081830,-0.063149,-2.312133,-9.236861
38.111122,-0.035765,-2.283102,-9.729485
38.144794,0.007931,-2.293577,-9.569816
38.178019,0.339839,-2.227435,-9.548866
38.211377,-0.935568,-3.400486,-9.470752
38.245293,0.537069,-2.040681,-9.625034
38.278220,-0.101159,-2.400572,-9.453095
38.311989,0.218329,-2.380370,-9.524774
38.349491,0.531083,-1.970498,-9.534949
38.378031,0.268011,-2.261703,-9.598996
38.411859,-0.211595,-2.511458,-9.807599
38.445537,0.194386,-2.269934,-9.909655
38.478826,1.397067,-1.272713,-9.440375
38.511801,-0.313801,-2.435289,-9.763903
38.545968,-0.138420,-2.454144,-9.660649
38.578459,-0.121510,-2.495146,-9.997196
38.611759,0.367224,-2.190174,-9.638502
38.645251,0.241224,-2.341164,-9.565028
38.678576,0.183612,-2.407007,-9.658105
38.711691,0.230300,-2.335777,-9.357622
38.744969,0.053423,-2.315126,-9.397128
38.778449,0.290756,-2.430501,-9.364656
38.811666,0.246312,-2.326349,-9.081382
38.845097,0.398350,-1.875325,-9.167725
38.878533,0.400893,-1.970947,-9.245989
38.911947,0.306768,-2.318269,-9.883767
38.944969,0.479456,-2.141391,-9.546173
38.979449,0.408525,-2.337273,-9.373185
39.012834,0.405383,-2.380221,-9.636108
39.045013,0.541109,-2.284150,-9.684143
39.080294,0.302578,-2.457586,-9.650474
39.124317,0.611291,-2.113707,-9.031401
39.145754,0.523002,-2.210077,-9.658554
39.179677,0.070631,-2.849651,-9.810143
39.211687,0.395656,-2.257513,-9.539588
39.245337,0.600368,-2.193317,-9.925068
39.278359,0.305870,-2.296421,-9.553355
39.312165,0.468233,-2.430052,-9.444116
39.344029,0.579118,-2.306746,-9.395931
39.379075,0.472423,-2.119543,-9.897085
39.412226,0.317393,-2.332784,-9.228630
39.445787,0.588396,-2.534652,-9.238806
39.477434,0.469729,-2.475992,-9.606928
39.512639,0.325773,-2.216511,-9.562484
39.543925,0.392962,-2.394586,-9.401767
39.579977,0.458805,-2.534503,-9.230127
39.610819,0.221920,-2.272328,-9.840969
39.645806,0.202766,-2.362264,-9.627429
39.679724,0.353457,-2.423468,-9.672322
39.712271,-0.005537,-2.559343,-8.884451
39.745938,0.237633,-2.288041,-10.007821
39.777709,0.430672,-2.374085,-9.724697
39.810416,-0.112382,-2.322459,-9.097693
39.844338,0.213540,-2.185236,-9.152462
39.877899,0.100261,-2.415387,-9.732328
39.910586,0.274744,-2.686390,-10.404076
39.944398,-0.000599,-2.728290,-10.280919
39.977720,0.228654,-2.465368,-10.381180
40.011687,0.339989,-2.564431,-9.816128
40.044221,0.023943,-2.944524,-9.446361
40.077759,-1.002608,-2.473598,-9.665588
40.110220,-0.024990,-2.123882,-9.537344
40.144409,-0.343879,-2.470755,-9.881373
40.177646,-0.462546,-2.231326,-9.751932
40.221187,-0.119415,-2.334280,-9.972505
40.244264,-0.185557,-2.234917,-9.182241
40.277659,-0.093826,-2.006413,-9.683545
40.310619,-0.337744,-1.576488,-8.740196
40.344236,-0.175382,-2.270981,-9.446361
40.377583,-0.120762,-2.707041,-9.579393
40.410915,-0.219825,-1.743939,-9.805354
40.444279,-0.112531,-2.080486,-9.779017
40.477609,-0.184210,-2.274124,-9.954249
40.510886,-1.261789,-2.091410,-9.025265
40.543405,-0.545449,-1.849437,-9.336822
40.577596,-0.175980,-2.001025,-9.935394
40.610916,-0.150990,-2.521633,-10.059298
40.644216,-0.314849,-1.913634,-9.072702
40.677586,-0.318590,-1.796464,-9.148122
40.710916,-0.264718,-2.175360,-9.925966
40.744297,-0.241973,-2.445016,-9.889004
40.777619,-0.333404,-1.914682,-8.988453
40.810922,-0.285369,-2.110414,-9.682647
40.844255,-0.293899,-2.280259,-9.807748
40.877521,-0.208902,-2.361815,-9.362860
40.910918,-0.548441,-2.061032,-9.543030
40.944276,-0.210697,-2.305100,-9.899779
40.977413,-0.279383,-2.379024,-9.680253
41.010924,-0.237783,-2.334430,-9.560838
41.044336,-0.373210,-2.270084,-9.519985
41.077290,-0.324875,-2.215763,-9.535398
41.110922,-0.254842,-2.249582,-9.615008
41.144290,-0.359742,-2.112958,-9.413738
41.177586,-0.312903,-2.333083,-9.620096
41.210920,-0.251550,-2.426011,-9.600343
41.244150,-0.338941,-2.312283,-9.587175
41.276645,-0.376202,-2.380670,-9.740110
41.310936,-0.306768,-2.400273,-9.493199
41.351523,-0.120912,-2.405510,-9.512503
41.377575,-0.215635,-2.499935,-9.777670
41.410914,-0.399846,-2.446513,-9.423765
41.444217,-0.188550,-2.475693,-9.513101
41.477570,-0.331609,-2.326200,-9.700604
41.510878,-0.200073,-2.219803,-9.842765
41.544277,-0.281478,-2.516845,-9.512802
41.577580,-0.322032,-2.551263,-9.907710
41.610268,-0.215486,-2.178502,-9.804606
41.644256,-0.073475,-2.516845,-9.519237
41.677615,-0.466736,-2.608426,-9.373634
41.710996,-0.275942,-2.378126,-9.646284
41.744323,-0.231049,-2.175210,-9.500831
41.776845,-0.179572,-2.312283,-9.322756
41.810930,-0.186006,-2.322758,-10.103293
41.844052,-0.187353,-2.444567,-9.283250
41.877229,-0.116422,-2.349095,-9.357622
41.910982,-0.057613,-2.116849,-9.892446
41.943809,0.367224,-2.270981,-9.184934
41.977655,-0.362286,-1.951943,-8.806338
42.010722,-0.028731,-2.759566,-10.111673
42.044467,-0.373808,-1.484458,-8.205671
42.077233,0.150990,-2.158300,-9.468957
42.110992,-0.401043,-2.036341,-9.360466
42.144466,-0.049233,-2.275770,-10.223307
42.176848,-0.231348,-2.016588,-9.105923
42.210927,-0.175830,-2.379772,-10.173625
42.244307,-0.259930,-2.545576,-9.586426
42.277123,-0.244367,-1.909594,-9.132410
42.310916,-0.308414,-2.384560,-9.766896
42.344259,-0.234191,-2.241801,-9.436185
42.377062,0.005088,-2.039184,-9.860872
42.410919,-0.329514,-2.003420,-9.332931
42.444276,-0.160866,-2.079139,-9.682198
42.482447,-0.117170,-2.108319,-9.770637
42.510911,-0.240476,-2.029907,-9.551560
42.544256,-0.327568,-1.768780,-8.864100
42.577600,-0.129441,-1.568557,-9.073450
42.610915,-0.278486,-2.250929,-9.054895
42.644250,-0.326521,-2.304501,-9.591814
42.677562,-0.361088,-2.084227,-9.396530
42.710976,-0.364530,-2.272927,-9.699108
42.743933,-0.313951,-2.392491,-9.447408
42.777780,-0.287614,-2.237611,-9.380069
42.810845,-0.389820,-2.487066,-10.562697
42.844313,-0.362136,-2.817477,-10.054510
42.876971,-0.286117,-2.806553,-10.616718
42.910450,-0.270405,-2.189576,-9.948712
42.944229,-0.365129,-2.463871,-9.854437
42.977611,-0.224165,-2.505173,-10.462287
43.010927,-0.156975,-2.357176,-9.569517
43.044123,-0.262623,-2.472251,-10.264608
43.076975,-0.177626,-2.658108,-9.664241
43.110987,-0.209350,-2.510410,-9.653317
43.144044,-0.210847,-2.319316,-9.634611
43.177618,-0.095472,-2.295074,-9.404610
43.211157,-0.179272,-2.368100,-9.417629
43.244117,-0.238381,-2.582987,-9.649426
43.277622,-0.307965,-2.184637,-9.538241
43.310899,-0.124353,-2.623690,-9.707488
43.343891,-0.266963,-2.629975,-9.320361
43.377510,-0.254842,-2.312582,-9.868204
43.410991,-0.208902,-2.266941,-9.514897
43.443912,-0.216833,-2.430650,-9.702549
43.477616,-0.370965,-2.490059,-9.489159
43.510976,-0.244517,-2.287891,-9.329938
43.550634,-0.233742,-2.353584,-9.762257
43.578055,-0.195883,-2.352686,-9.619348
43.610905,-0.121809,-2.238509,-9.169970
43.644361,-0.151289,-2.225640,-9.441722
43.677580,-0.196182,-2.229081,-9.684592
43.711251,-0.157125,-2.353135,-9.610070
43.744320,-0.281478,-2.344606,-9.647780
43.777339,-0.294048,-2.457137,-9.943175
43.810922,-0.165056,-2.494548,-9.831841
43.844313,-0.119116,-2.309140,-9.733825
43.877379,-0.183462,-2.196908,-9.811639
43.910995,-0.121510,-2.070609,-9.553056
43.944226,-0.323528,-2.241801,-9.526719
43.977621,-0.165206,-2.094852,-9.532106
44.010898,-0.170743,-2.059985,-9.397278
44.044248,-0.215935,-2.319915,-9.788893
44.077430,-0.122258,-2.099939,-10.199514
44.110981,-0.286417,-2.084526,-9.552308
44.144149,-0.077814,-1.602526,-9.514448
44.177621,-0.513126,-2.104728,-9.167875
44.210240,-0.129441,-1.761597,-9.093802
44.244161,-0.173436,-1.937278,-9.572959
44.277691,-0.321433,-2.226088,-10.137561
44.310884,-0.207106,-1.789879,-9.363458
44.344270,-0.457309,-1.824896,-8.865896
44.377630,-0.218928,-2.049061,-10.039695
44.410951,-0.002544,-2.392192,-10.067828
44.444260,-0.197229,-2.349843,-8.771172
44.477641,-0.326222,-1.898520,-9.385306
44.510918,0.003442,-2.269635,-9.210523
44.544262,-0.208602,-2.284449,-9.639999
44.577375,-0.389521,-2.100239,-9.501729
44.613330,-0.242871,-2.531959,-9.927762
44.644225,-0.087541,-2.410449,-9.935394
44.677600,-0.438603,-2.395035,-9.819271
44.710915,-0.506841,-2.659305,-10.091471
44.744282,-0.265467,-2.803261,-9.941978
44.777565,-0.224464,-2.489909,-10.061543
44.810939,-0.289110,-2.621595,-9.650174
44.844213,-0.237783,-2.471653,-9.502028
44.877646,-0.253346,-2.499486,-9.755074
44.910918,-0.253794,-2.671127,-9.587474
44.944366,-0.196780,-2.799071,-9.546322
44.977616,-0.365278,-2.608725,-9.395632
45.010921,-0.317842,-2.411646,-9.350739
45.044402,-0.241673,-2.593612,-9.520584
45.077209,-0.229253,-2.744601,-10.177666
45.111004,-0.376801,-2.719162,-9.421819
45.145146,-0.322630,-2.597502,-9.190920
45.177464,-0.218928,-2.644789,-9.417330
45.210925,-0.265766,-2.726195,-9.530310
45.244269,-0.374706,-2.524925,-9.368995
45.277612,-0.286417,-2.545576,-9.851444
45.310896,-0.316644,-2.542883,-9.686388
45.344306,-0.226559,-2.475693,-9.509959
45.377381,-0.388623,-2.488712,-9.690578
45.411014,-0.341485,-2.524626,-9.960833
45.444215,-0.198427,-2.547821,-9.513251
45.477614,-0.130788,-2.473897,-9.209626
45.510983,-0.305870,-2.186882,-9.432893
45.544132,-0.241673,-2.258262,-9.850696
45.577619,-0.322032,-2.404613,-9.539139
45.610979,-0.312754,-2.203043,-9.603935
45.644101,-0.183612,-1.921415,-9.232521
45.677584,-0.216234,-2.446064,-9.660200
45.710985,-0.265467,-1.727029,-9.329190
45.750830,0.250951,-1.734811,-9.326796
45.777629,0.032323,-2.283851,-9.204837
45.810916,-0.185857,-2.025717,-8.829084
45.843782,0.457010,-1.963016,-9.045766
45.877608,-0.078413,-1.472187,-8.904354
45.910945,-0.445637,-2.038885,-8.247421
45.944284,-0.590940,-1.673307,-8.947900
45.977672,-0.791462,-2.460729,-9.729784
46.011660,0.065095,-1.967206,-9.381865
46.044259,0.113280,-1.599085,-9.052650
46.077619,-0.010475,-2.249283,-9.604533
46.110991,0.059259,-2.399375,-9.409997
46.143978,-0.229103,-2.263649,-9.868354
46.177689,-0.304523,-2.323356,-10.250991
46.210966,-0.212942,-2.516845,-9.896038
46.244259,-0.125700,-2.512804,-9.924171
46.277609,-0.165206,-2.317371,-9.528515
46.310686,-0.316794,-2.514750,-9.901425
46.344262,-0.111484,-2.290884,-9.793383
46.377657,-0.259032,-2.345055,-9.294323
46.410809,-0.271752,-2.508465,-9.755972
46.444378,-0.431570,-2.461626,-9.318865
46.477611,-0.179721,-2.417931,-9.473147
46.510999,-0.148745,-2.320663,-9.189573
46.544346,-0.229702,-2.350591,-9.452945
46.577304,-0.417803,-2.526871,-9.642543
46.610928,-0.215635,-2.968018,-9.178350
46.644319,-0.044743,-2.848753,-9.435137
46.677159,-0.502351,-2.539441,-9.998543
46.710983,-0.552781,-2.581042,-9.649426
46.744336,-0.250053,-2.896938,-9.327245
46.777059,-0.404186,-2.395185,-9.165182
46.810488,-0.732502,-2.481230,-9.760012
46.844330,-0.188700,-2.739214,-9.482574
46.877630,-0.106097,-2.396681,-9.050555
46.910886,-0.245414,-2.344905,-9.792186
46.944216,-0.494420,-2.673072,-9.750585
46.977545,-0.309162,-2.670977,-9.946767
47.010916,-0.246013,-2.237461,-9.507864
47.044285,-0.283573,-2.520885,-9.355378
47.077613,-0.266963,-2.324404,-9.433042
47.111018,-0.313801,-2.249283,-9.677709
47.144271,-0.215037,-2.241951,-9.467909
47.177647,-0.306618,-2.356577,-9.439028
47.210943,-0.290906,-2.321860,-9.446510
47.244251,-0.394309,-2.329342,-9.135702
47.276847,-0.299286,-2.246290,-9.163984
47.310438,-0.142759,-2.360318,-9.256314
47.344263,-0.281329,-2.269635,-9.129118
47.377610,-0.358844,-1.935931,-9.078239
47.411224,-0.346723,-2.344456,-9.712426
47.444265,-0.209650,-2.260656,-9.454890
47.477683,-0.140964,-1.996237,-9.201994
47.511124,-0.424387,-2.286993,-9.726792
47.543892,-0.080209,-2.323656,-10.261915
47.577648,-0.289409,-2.002073,-9.738913
47.611023,-0.389521,-2.063277,-10.009317
47.643906,-0.334602,-2.439928,-10.194126
47.677784,-0.146201,-2.315126,-9.767943
47.710920,-0.049083,-2.127623,-9.646433
47.744255,-0.329663,-2.232373,-9.585529
47.777635,-0.244666,-2.239407,-9.597949
47.810686,-0.274894,-2.192868,-9.102930
47.844320,-0.203514,-2.584334,-10.101049
47.882567,-0.287464,-2.466714,-9.211721
47.910939,-0.263821,-2.456688,-9.483771
47.944252,-0.252897,-2.350591,-9.350739
47.977657,-0.238681,-2.447710,-9.361812
48.010922,-0.121211,-2.295224,-9.330687
48.044218,-0.123007,-2.299414,-9.670526
48.077614,-0.358694,-2.489759,-9.702250
48.110937,-0.330412,-2.530163,-9.464617
48.144255,-0.234191,-2.618303,-9.841717
48.177813,-0.234939,-2.386506,-9.951256
48.210699,-0.433665,-2.670378,-9.669029
48.244315,-0.247809,-3.040595,-10.160906
48.277684,-0.190047,-2.540039,-9.756421
48.310797,-0.408525,-2.428705,-9.692673
48.344317,-0.314998,-2.731582,-9.994952
48.377692,-0.168947,-2.508315,-10.067229
48.410915,-0.351062,-2.011052,-8.747079
48.444314,-0.307666,-2.417033,-9.701053
48.477604,-0.316495,-2.412095,-9.692224
48.510892,-0.262324,-2.241502,-9.010151
48.544325,-0.181218,-2.050408,-9.384857
48.577611,-0.248108,-2.099640,-9.385606
48.610957,-0.318590,-2.179550,-9.189124
48.644324,-0.301680,-2.235815,-9.061180
48.677554,-0.263821,-2.309739,-8.999676
48.710939,-0.333554,-2.423168,-9.357922
48.744268,-0.031575,-2.093804,-8.774015
48.777589,-0.303027,-2.472401,-9.622341
48.810928,-0.232096,-2.650626,-9.898881
48.844307,-0.303626,-2.382316,-9.670526
48.877582,-0.196032,-2.373038,-9.606628
48.910796,-0.113130,-2.283851,-9.774079
48.944282,-0.209500,-2.132562,-9.857430
48.977116,-0.354654,-2.132113,-10.176618
49.010932,-0.219676,-2.290884,-9.463121
49.044450,-0.257386,-2.549467,-9.981484
49.081910,-0.296293,-2.087220,-9.576251
49.110886,-0.285818,-2.150668,-10.118108
49.144248,-0.177327,-2.450254,-10.052115
49.177642,-0.154880,-2.145281,-9.916090
49.210926,-0.349117,-2.372140,-9.422717
49.244297,-0.227757,-2.374235,-9.755074
49.277612,-0.174783,-2.722454,-9.713473
49.310947,-0.184959,-2.287442,-9.635958
49.344212,-0.291504,-2.197806,-9.665737
49.377659,-0.399846,-2.468510,-9.403712
49.410718,-0.340587,-2.389050,-9.565177
49.444266,-0.311856,-2.235815,-9.244642
49.477668,-0.321433,-2.359420,-9.115051
49.510510,-0.320086,-2.350292,-9.546472
49.544260,-0.412566,-2.407755,-9.453992
49.577690,-0.306768,-2.408803,-9.511455
49.610896,-0.361837,-2.235815,-9.238806
49.644250,-0.317393,-2.364059,-9.522230
49.677707,-0.327568,-2.446513,-9.737865
49.710934,-0.308264,-2.277566,-9.624735
49.744326,-0.296143,-2.250331,-9.288936
49.777704,-0.154132,-2.194813,-9.443368
49.810768,-0.188101,-2.354781,-9.688184
49.844263,-0.281029,-2.048163,-9.756421
49.877650,-0.113878,-2.133310,-9.631768
49.910709,-0.195583,-1.986211,-9.568469
49.944321,-0.376352,-1.962867,-9.340114
49.977590,-0.301979,-2.065222,-8.817711
50.010932,-0.207255,-2.024519,-9.432743
50.044268,-0.320386,-2.217409,-9.610369
50.077445,-0.117769,-2.260506,-9.348494
50.110203,-0.460601,-2.400572,-9.295820
50.144176,-0.492026,-2.114006,-9.599745
50.177551,-0.467335,-2.130467,-9.563381
50.210869,-0.247958,-2.187331,-9.502926
50.244216,-0.253944,-1.975437,-9.519237
50.277550,-0.430972,-2.033947,-9.799219
50.310903,-0.247509,-1.839261,-10.053911
50.344228,-0.078563,-2.067916,-9.521032
50.377607,-0.093826,-2.000577,-10.041491
50.410934,-0.319787,-2.140193,-9.989714
50.444212,-0.363932,-2.207832,-9.713174
50.477625,-0.294946,-2.247487,-9.547519
50.510869,-0.129292,-2.208431,-9.779017
50.544251,-0.250053,-2.052353,-9.055643
50.577542,-0.388024,-2.469258,-9.785152
50.610670,-0.262324,-2.383214,-9.704944
50.644323,-0.292552,-2.224592,-9.237160
50.677636,-0.255291,-2.423318,-9.486914
50.710975,-0.272649,-2.535999,-9.820318
50.744320,-0.312754,-2.612915,-9.474494
50.777602,-0.271901,-2.673371,-9.222644
50.810978,-0.301680,-2.781563,-9.429750
50.844326,-0.391616,-2.617704,-9.349392
50.877404,-0.410920,-2.886762,-9.477935
50.910922,-0.357048,-2.950959,-9.721404
50.944508,-0.344777,-2.985078,-9.755523
50.977985,-0.327568,-2.788896,-9.774827
51.010954,-0.374856,-2.863418,-9.765100
51.044356,-0.322181,-2.748492,-9.596153
51.077524,-0.265766,-2.581640,-10.114217
51.110960,-0.189897,-2.630274,-10.345715
51.143790,-0.219377,-2.349245,-9.744749
51.177286,-0.277588,-2.364359,-9.751632
51.210862,-0.376502,-2.319466,-9.943026
51.244467,-0.120163,-2.212920,-9.675165
51.277470,-0.172389,-1.968703,-9.197355
51.310758,-0.217132,-2.086322,-9.443517
51.343398,-0.396255,-2.145880,-9.294323
51.376878,-0.174633,-2.253922,-9.049358
51.410426,-0.231049,-1.994292,-9.196906
51.444241,-0.621467,-2.177455,-9.229528
51.477530,-0.363034,-2.034546,-9.423615
51.510172,-0.238830,-1.965111,-9.591365
51.544219,-0.265766,-2.127174,-9.398924
51.577622,-0.350613,-2.105925,-9.001023
51.610891,-0.311407,-2.073453,-9.384109
51.643439,-0.291056,-2.129419,-9.386803
51.677739,-0.269208,-1.996087,-9.555600
51.710908,-0.350164,-1.692462,-9.137647
51.744251,-0.182864,-1.849437,-9.841568
51.777676,-0.166403,-1.753217,-9.802062
51.810597,-0.300782,-1.800205,-9.346698
51.844237,-0.236286,-1.831929,-9.391442
51.877589,-0.077515,-1.809483,-9.516094
51.910941,-0.196332,-1.873081,-9.408651
51.944551,-0.465090,-1.781200,-9.275768
51.977625,-0.011074,-2.030056,-9.079137
52.010918,-0.116721,-2.192120,-9.124778
52.044319,-0.252597,-2.235067,-9.370641
52.077612,-0.306169,-2.341164,-9.092605
52.110931,-0.164757,-2.475693,-9.308839
52.144323,-0.210099,-2.283851,-9.251974
52.177231,-0.297191,-2.523878,-9.871197
52.211017,-0.246911,-2.305250,-9.889304
52.244353,-0.099662,-2.636559,-9.850546
52.277622,-0.187353,-2.492154,-9.809694
52.310959,-0.358245,-2.432446,-10.009766
52.349738,-0.072278,-2.266492,-9.897833
52.377593,-0.175681,-2.432596,-10.205050
52.410686,-0.109090,-2.638953,-10.322370
52.444152,-0.322929,-2.732480,-10.102096
52.477616,-0.075869,-2.495446,-9.930156
52.510961,-0.060007,-2.589721,-9.761658
52.544254,-0.239279,-2.281456,-9.537792
52.577740,0.036513,-2.045170,-9.237309
52.611361,-0.280730,-2.013745,-9.125676
52.644247,-0.198427,-2.387404,-9.563980
52.677618,-0.022147,-2.124032,-9.330238
52.711152,-0.085745,-2.011949,-9.575652
52.743920,-0.185557,-2.100688,-9.545574
52.777655,-0.219676,-2.038885,-8.794666
52.810999,-0.168498,-1.718500,-9.394584
52.844352,-0.016461,-1.708324,-8.923059
52.877426,-0.100859,-1.956133,-8.965109
52.910929,-0.110736,-2.115951,-9.367200
52.944203,-0.159220,-1.955684,-9.316321
52.977564,-0.247659,-2.156505,-9.178200
53.010981,-0.117919,-2.086621,-9.567123
53.044287,-0.175232,-1.992945,-9.160243
53.077622,-0.189747,-2.099939,-9.656759
53.111025,-0.182115,-1.984116,-9.748639
53.144475,0.052674,-1.833874,-9.618450
53.177590,-0.385630,-1.917974,-9.444715
53.210945,-0.274595,-2.112210,-9.499634
53.244582,-0.201120,-2.293877,-9.134804
53.277597,-0.068237,-2.073153,-8.814418
53.310658,-0.009428,-1.934434,-9.244792
53.344484,-0.111334,-2.232224,-9.466862
53.377208,-0.055966,-1.961819,-9.527467
53.410977,-0.248407,-2.237012,-8.977978
53.457607,-0.167750,-2.116849,-9.204837
53.478213,-0.264569,-2.475693,-9.312430
53.510957,-0.117320,-2.510560,-9.995850
53.544231,-0.227457,-2.391743,-9.169970
53.577613,-0.161914,-2.286993,-9.409848
53.610942,-0.148895,-2.567424,-10.040144
53.644321,-0.235089,-2.823014,-10.337933
53.677612,0.082753,-2.472401,-9.368995
53.710988,-0.199025,-2.424814,-9.133158
53.744238,0.002394,-2.752383,-10.362475
53.777643,0.030677,-2.501132,-10.093417
53.811011,-0.114477,-2.360917,-10.042538
53.844198,-0.118368,-2.641497,-9.070009
53.876998,-0.079161,-2.284749,-9.757169
53.910993,-0.088289,-2.382316,-10.111673
53.944327,0.045641,-2.180747,-9.049508
53.977672,-0.070033,-2.218008,-9.527916
54.010916,-0.210248,-2.145730,-9.615008
54.044251,-0.095622,-2.293278,-8.896124
54.077645,-0.060306,-2.179550,-9.280706
54.110865,-0.149194,-1.898221,-9.229378
54.144253,-0.063449,-2.048013,-8.961667
54.177708,0.017957,-2.155756,-9.076443
54.210968,-0.180619,-1.887895,-9.194811
54.244267,0.055667,-2.165483,-9.291031
54.277423,0.106097,-1.977681,-8.931290
54.310856,0.048484,-1.994292,-9.735920
54.344252,-0.089636,-2.052652,-9.258259
54.377612,0.050280,-1.714759,-9.022273
54.411024,-0.064646,-2.062978,-9.300010
54.444398,0.229403,-1.887895,-9.615906
54.477593,0.264419,-1.921864,-9.645535
54.510978,0.120612,-2.483025,-9.910403
54.549231,-0.042798,-2.149022,-9.434090
54.577603,-0.204263,-1.983667,-8.854523
54.610884,-0.013019,-2.069712,-9.499484
54.644275,0.172538,-1.983817,-9.602139
54.677657,-0.104600,-2.099640,-9.455639
54.710928,0.184809,-2.002522,-9.514448
54.744322,-0.095622,-1.970498,-9.197804
54.778110,-0.005836,-2.057591,-9.825406
54.810996,-0.262174,-2.399824,-9.384708
54.844324,-0.053871,-2.120291,-9.843812
54.877578,-0.034418,-1.878618,-9.364207
54.910984,-0.232096,-2.419128,-10.188141
54.944291,-0.087990,-2.375731,-10.226300
54.977608,0.074522,-2.373786,-9.232371
55.010991,-0.056116,-2.356577,-10.133371
55.044726,-0.252747,-2.453246,-9.668132
55.077588,-0.010325,-2.551412,-9.792485
55.110989,-0.084997,-2.494847,-9.746395
55.144425,-0.038458,-2.553358,-10.098804
55.177601,-0.022147,-2.765402,-9.481078
55.210978,0.026188,-2.569818,-9.746245
55.243766,0.085296,-2.635063,-9.461475
55.277618,0.004040,-2.303155,-8.986358
55.311235,-0.138569,-2.462524,-9.479432
55.343814,0.047886,-2.278314,-9.137498
55.377364,-0.005238,-2.274573,-9.259756
55.410961,0.064646,-2.463871,-9.215761
55.444275,-0.040104,-2.244345,-9.813136
55.477621,-0.135128,-1.928149,-9.619198
55.510993,-0.012570,-1.923361,-9.280407
55.543683,-0.016910,-2.317071,-9.308240
55.577595,-0.165804,-2.171469,-9.518788
55.610787,-0.152187,-2.315126,-10.073664
55.651381,0.141413,-2.498738,-9.998543
55.677313,0.011223,-2.260506,-9.257511
55.710920,-0.092180,-2.315725,-9.601091
55.744212,-0.036812,-2.292081,-9.606179
55.777586,0.150840,-2.482427,-10.256677
55.810982,-0.105648,-2.162490,-9.832739
55.844328,-0.111634,-2.187630,-9.511306
55.877647,0.035615,-2.020629,-9.093952
55.910981,-0.026636,-2.053401,-9.315722
55.943963,0.072427,-1.976035,-10.109279
55.977608,0.104151,-1.833725,-9.322007
56.011126,-0.021998,-2.137949,-9.742354
56.043878,-0.338193,-2.085125,-9.160243
56.077607,-0.190944,-2.018683,-9.735620
56.111002,-0.081256,-1.989503,-9.292528
56.144486,-0.220873,-2.330988,-9.272476
56.177664,-0.128693,-2.068514,-9.512503
56.211000,-0.024242,-2.304501,-9.573557
56.244274,0.201569,-2.419577,-9.555750
56.277578,-0.002694,-2.249582,-9.764202
56.310902,0.106246,-2.429453,-9.599894
56.344334,-0.043995,-2.213369,-9.545125
56.377657,0.337744,-2.418080,-10.011712
56.410678,0.235388,-2.487215,-9.590467
56.444262,0.159669,-2.387104,-10.046579
56.477626,0.121809,-2.253922,-9.645984
56.510504,0.159070,-2.468061,-9.401617
56.544268,0.169695,-2.455641,-9.649875
56.577638,0.193937,-2.159946,-9.396679
56.610935,0.120912,-2.253772,-9.739960
56.644260,0.233593,-2.487365,-9.990313
56.677610,0.372761,-2.158600,-9.303751
56.713662,0.248407,-2.394736,-9.762257
56.744242,0.033670,-2.586578,-9.322007
56.777586,0.240177,-2.333233,-9.787397
56.811002,0.320685,-2.304202,-9.885413
56.844324,0.452371,-2.435888,-9.189274
56.877717,0.073475,-2.357625,-9.456387
56.910928,0.147847,-2.391444,-10.247549
56.944358,0.294797,-2.557099,-10.124542
56.977670,0.308564,-2.311535,-9.750285
57.010921,0.277588,-2.275471,-9.847703
57.044403,0.162961,-2.489460,-9.704046
57.078217,0.264120,-2.586429,-10.286905
57.110920,0.384732,-2.388301,-9.186281
57.144359,0.158771,-2.595557,-9.580291
57.177701,-0.002394,-2.572961,-9.490206
57.210869,0.515819,-2.154410,-9.000275
57.244252,0.376951,-1.930843,-8.631555
57.277606,0.057164,-2.250181,-9.387850
57.310896,-0.057463,-2.166231,-9.556199
57.344274,0.395057,-2.066120,-9.064472
57.377664,0.241673,-2.047564,-9.405508
57.410947,-0.012869,-2.239107,-10.299325
57.444362,0.312155,-2.273076,-10.079949
57.477586,0.104600,-2.296421,-9.532854
57.510992,0.284022,-2.251827,-10.137861
57.544178,0.165355,-2.215464,-9.365853
57.577564,0.333554,-2.068514,-9.826753
57.610982,0.081855,-2.050557,-9.465665
57.644172,0.191992,-2.375282,-9.680103
57.677594,0.178225,-2.220851,-9.319613
57.710987,0.297789,-2.173713,-9.269034
57.743931,0.206507,-2.046966,-9.299860
57.777593,0.189448,-2.185835,-9.249431
57.810976,0.220125,-2.200948,-9.196307
57.851338,0.168049,-2.512056,-9.474194
57.877589,0.070931,-1.950895,-9.023619
57.910922,0.073475,-2.318418,-8.997432
57.944646,0.147548,-2.492154,-9.717663
57.977591,0.212493,-2.262302,-10.133820
58.011013,0.336697,-2.265145,-9.350440
58.044313,0.066890,-2.471353,-10.164497
58.077704,0.148595,-2.353435,-9.634911
58.110999,0.293599,-2.148125,-9.598248
58.144316,0.252747,-2.433344,-10.117659
58.177620,0.338343,-2.615160,-10.051367
58.210681,0.429026,-2.440527,-9.683994
58.243798,0.086494,-2.816430,-10.227796
58.277647,0.143358,-2.802064,-10.352598
58.311000,0.372910,-2.718863,-9.967717
58.344259,0.346723,-2.742207,-9.698060
58.377589,0.206956,-2.524327,-9.646733
58.411019,0.418102,-2.250031,-8.942962
58.444266,-0.013318,-2.434691,-8.767730
58.477810,0.091282,-2.623839,-10.461089
58.510921,0.167750,-2.027213,-8.848387
58.544332,0.222968,-2.128222,-9.194811
58.577668,-0.024691,-2.043823,-8.972591
58.610925,0.183313,-2.008508,-8.660885
58.644325,0.287763,-1.907050,-9.139293
58.677070,0.065993,-2.109517,-9.349392
58.710920,0.263222,-2.255867,-9.733376
58.744330,0.233742,-1.977232,-8.836117
58.777125,0.009577,-2.270981,-10.011113
58.810933,0.203514,-2.118346,-9.802511
58.844223,0.590192,-1.998332,-9.405508
58.877370,0.068686,-2.129269,-9.412242
58.910922,0.265317,-2.240155,-10.275383
58.944653,0.073924,-2.230727,-9.952752
58.977640,0.329364,-2.004767,-9.722452
59.010915,0.260379,-2.070011,-9.939135
59.044220,0.391616,-1.989952,-9.524923
59.077585,0.207405,-2.023173,-9.381116
59.111084,0.253046,-2.080785,-9.558144
59.144257,0.292402,-2.229530,-9.458781
59.177652,0.170892,-1.539976,-8.644424
59.210927,0.078563,-1.932938,-9.372736
59.244335,0.011822,-1.855872,-9.444864
59.277619,0.034418,-2.222048,-9.584780
59.310968,0.002843,-2.136303,-9.451449
59.344261,0.176728,-1.992645,-9.671723
59.377073,0.063299,-2.036641,-9.334128
59.410917,-0.049532,-2.609474,-10.105089
59.444310,0.381290,-2.527769,-10.066930
59.477915,0.246462,-2.279960,-10.103742
59.510921,0.199175,-2.467911,-10.393451
59.544317,0.160717,-2.621146,-9.700454
59.577294,0.027684,-3.029222,-9.255117
59.610917,0.281029,-2.257214,-9.496491
59.644313,0.455663,-2.517294,-9.607825
59.677628,0.098315,-2.456539,-9.836181
59.710922,0.118816,-2.437235,-9.145578
59.744263,0.360191,-2.518640,-9.257661
59.777660,0.156676,-2.493650,-9.513999
59.810920,0.088140,-2.620098,-9.118044
59.844256,0.315148,-2.629676,-9.199151
59.877612,0.233443,-2.004168,-8.596688
59.910918,0.025439,-2.391444,-9.718262
59.944238,0.178075,-2.266342,-9.752231
59.977419,0.367373,-2.338919,-9.241350
60.011033,0.209799,-2.451750,-9.515496
60.045329,0.000449,-2.233271,-10.462137
60.077580,0.301082,-2.185086,-10.434004
60.110924,0.253346,-2.478087,-10.170483
60.144272,0.267711,-2.246141,-10.114217
60.177616,0.176429,-2.118794,-9.779167
60.211046,0.182265,-2.353734,-10.141452
60.244512,0.287763,-2.392192,-9.774228
60.277624,0.073475,-1.914233,-9.857131
60.310930,0.230300,-2.483624,-10.081296
60.344235,0.119714,-2.474645,-9.150965
60.377584,0.143059,-2.135255,-9.226834
60.410931,-0.019005,-2.439479,-8.988004
60.444326,0.085895,-1.993843,-8.925154
60.477294,0.279234,-2.285497,-9.096645
60.510983,0.245564,-2.248984,-8.860359
60.543513,0.104600,-2.127474,-9.788893
60.577647,-0.059708,-2.175958,-9.435437
60.610986,0.018256,-2.024968,-9.483023
60.644380,0.168648,-2.343558,-10.064386
60.677591,0.074971,-1.980824,-9.355378
60.711000,0.248557,-2.049211,-9.586426
60.744223,0.332357,-2.214267,-9.692523
60.777592,0.133033,-2.244943,-10.161055
60.810994,0.159968,-1.578434,-9.524923
60.844298,0.029330,-2.338620,-9.409848
60.877615,-0.099064,-2.388750,-10.009168
60.910990,0.078563,-2.221300,-9.858477
60.944083,0.531083,-2.270682,-10.055856
60.977586,0.289858,-2.924472,-10.132324
61.010931,-0.092629,-2.980439,-10.187542
61.043798,0.337146,-2.441125,-8.971095
61.077897,0.207555,-2.248236,-9.316022
61.110937,-0.168947,-2.805506,-10.493712
61.144223,-0.146650,-2.295672,-10.144295
61.177580,0.080658,-2.340266,-10.116013
61.211017,-0.102056,-2.222796,-9.602289
61.244222,-0.036214,-2.354332,-10.279872
61.277695,0.157424,-2.290285,-10.281967
61.310998,0.205460,-2.321411,-10.478747
61.344217,0.225811,-2.338770,-9.697462
61.377714,-0.055069,-2.775877,-8.937126
61.410503,-0.067040,-2.898434,-10.448669
61.444263,0.124802,-2.475543,-10.250991
61.477717,-0.138719,-2.064773,-9.706440
61.510666,0.196332,-2.327397,-9.687435
61.544262,0.355103,-2.305250,-9.203939
61.577648,0.013917,-2.256765,-9.599595
61.611525,0.184510,-2.165184,-8.988304
61.644387,0.236735,-1.966009,-9.041427
61.677895,-0.000599,-2.259908,-9.349841
61.710999,0.086793,-2.335029,-9.188526
61.744536,0.071230,-2.453546,-9.402216
61.777885,0.018107,-2.615310,-9.515496
61.810967,-0.361388,-2.659754,-9.487512
61.844299,-0.158921,-2.548868,-9.621293
61.877063,-0.020800,-2.719910,-9.030952
61.911039,-0.169396,-2.724549,-9.071804
61.943927,-0.074522,-2.681153,-10.027125
61.977589,-0.095173,-2.616806,-9.991510
62.011044,0.122707,-2.585232,-9.910703
62.044034,0.014515,-2.022275,-9.639849
62.077588,-0.053871,-2.477788,-9.943475
62.110920,0.064496,-2.198704,-9.765998
62.144338,0.086494,-2.101137,-9.320212
62.177615,-0.042648,-2.410898,-10.295584
62.211544,-0.065394,-2.309290,-9.640298
62.244233,-0.002095,-2.762259,-8.961368
62.277611,0.028881,-2.264696,-8.750521
62.310996,0.027235,-2.692974,-9.826005
62.344257,-0.101308,-2.036940,-9.120438
62.377613,0.092030,-2.535101,-9.803858
62.411118,0.162961,-2.341164,-9.034992
62.444331,0.145154,-2.010752,-9.400720
62.477585,0.106097,-2.669032,-10.323717
62.511127,0.007183,-2.392342,-10.399586
62.544461,0.104002,-2.207084,-9.971458
62.577615,0.419000,-2.129419,-9.347746
62.610980,-0.219825,-2.341314,-9.393537
62.644825,0.087541,-2.295373,-10.897448
62.677646,0.133482,-2.323506,-9.322756
62.710991,0.232246,-2.321112,-9.008954
62.743502,-0.205759,-2.347898,-9.404610
62.777555,-0.225662,-2.832891,-9.867755
62.810920,0.140365,-2.447560,-9.411344
62.843486,-0.126149,-2.411646,-9.025565
62.877586,0.221472,-2.397280,-9.055793
62.910993,-0.024392,-2.476890,-8.875323
62.944995,-0.098166,-2.307794,-9.408052
62.977586,-0.032921,-1.910043,-8.297552
63.010996,-0.021549,-2.332634,-9.290732
63.044104,0.067489,-2.563833,-10.388962
63.077560,0.065544,-2.029458,-9.300309
63.110964,-0.075570,-1.958527,-9.950957
63.144021,-0.313502,-2.340715,-9.609471
63.177591,-0.068985,-2.182542,-9.618151
63.210991,0.072726,-2.098144,-9.417330
63.243378,-0.159968,-2.333382,-9.978341
63.277591,-0.062102,-2.395933,-9.835432
63.310961,0.227008,-2.336974,-9.812238
63.344270,0.076168,-2.477040,-9.660200
63.377561,-0.079460,-2.318269,-9.355976
63.410916,-0.050130,-2.484073,-9.707488
63.444245,-0.415858,-2.749240,-9.877482
63.477637,0.023644,-2.386805,-9.537643
63.510994,0.340737,-1.875176,-8.879513
63.544252,-0.289409,-2.697015,-10.091022
63.577693,-0.097268,-2.359720,-9.355677
63.611009,-0.045791,-2.694471,-9.612315
63.644229,-0.168348,-2.376929,-9.592711
63.677571,-0.200970,-1.991299,-9.748639
63.710976,0.045641,-2.329043,-8.684678
63.743259,-0.061204,-2.553657,-9.982382
63.777653,0.259182,-2.352088,-9.187628
63.810210,-0.229552,-2.256017,-9.504871
63.844236,0.013618,-2.087519,-10.429814
63.877650,-0.034418,-2.257813,-9.694469
63.910575,0.073624,-2.406708,-9.112956
63.944251,-0.029629,-2.420924,-9.116697
63.977661,0.074373,-2.285796,-10.295285
64.010579,-0.015713,-1.987707,-9.700005
64.044327,0.029031,-2.089165,-9.468059
64.077658,0.136624,-2.694321,-10.629139
64.111739,-0.082453,-2.607528,-9.948413
64.144201,-0.084548,-1.882957,-9.276067
64.177603,-0.144106,-2.414040,-9.261103
64.210382,-0.259631,-2.460878,-10.356190
64.244221,0.137971,-2.047714,-9.485417
64.277551,0.061653,-2.217559,-9.426009
64.310950,-0.241374,-2.496942,-10.371453
64.344257,0.062700,-2.529714,-9.971757
64.376462,0.109539,-2.122685,-9.678457
64.411217,-0.084848,-2.346102,-9.804007
64.444225,-0.053722,-2.033049,-9.220250
64.477550,0.014665,-2.263499,-9.953800
64.510924,0.240327,-2.067617,-9.286991
64.545313,0.085296,-1.786288,-9.139144
64.577597,-0.353457,-2.125079,-9.630571
64.610950,-0.109239,-2.426760,-10.190535
64.644286,0.042648,-2.002821,-9.415983
64.677629,0.176279,-2.305250,-9.702998
64.710705,-0.226110,-2.383812,-9.140191
64.744241,0.118368,-2.350591,-9.641645
64.777681,0.175382,-2.376480,-9.487512
64.810510,0.150690,-2.297319,-9.295670
64.844322,-0.231797,-2.068066,-9.962778
64.877036,-0.054620,-2.301359,-9.903969
64.910984,0.019753,-2.318568,-9.470453
64.943948,-0.021698,-2.408054,-9.369444
64.976943,-0.080658,-2.173115,-9.774228
65.010956,-0.188700,-2.191371,-10.000040
65.044238,0.104002,-2.052353,-9.766148
65.077592,0.031126,-1.990401,-9.558593
65.110986,0.094125,-2.054747,-9.927313
65.143909,0.151439,-2.079438,-9.124778
65.177589,0.112980,-1.486852,-9.080035
65.210881,-0.179123,-2.231176,-9.818223
65.244136,-0.053572,-2.344157,-9.387252
65.277592,0.091881,-2.112061,-9.479731
65.310958,0.239279,-1.967206,-9.330687
65.344253,-0.300932,-2.239257,-9.401019
65.377625,-0.297490,-2.218307,-10.020241
65.410303,0.156975,-2.140343,-9.147524
65.444369,-0.050130,-2.181944,-9.792186
65.478722,-0.068387,-2.074500,-10.046878
65.510895,-0.075570,-1.903758,-9.787397
65.544248,0.050130,-1.973790,-9.441572
65.577626,0.136474,-2.284000,-9.589120
65.610917,-0.051776,-2.044272,-10.141303
65.644314,-0.049981,-1.891936,-9.856831
65.677588,0.186156,-1.955085,-9.813285
65.710937,-0.051926,-1.831929,-9.966669
65.744222,0.313652,-1.792423,-9.692673
65.777601,0.034119,-1.586365,-9.962180
65.810829,-0.154132,-1.557633,-10.018296
65.844221,0.099213,-1.434028,-10.231388
65.877631,0.176878,-1.213305,-10.329404
65.910535,-0.034418,-1.277651,-10.026377
65.944311,0.448480,-1.459468,-9.649127
65.977199,-0.050729,-2.112509,-9.551859
66.010888,0.003741,-1.994441,-9.787098
66.044424,0.336397,-1.224678,-8.174246
66.077010,-0.022297,-1.333618,-9.309288
66.110953,0.312754,-2.196609,-9.709283
66.144259,0.308863,-1.619137,-8.812922
66.177588,-0.133332,-2.261105,-9.582536
66.211073,-0.034717,-2.347299,-10.141901
66.243941,-0.041152,-2.206785,-10.141602
66.277700,-0.174035,-2.641497,-10.511519
66.310980,-0.076168,-1.945658,-9.165182
66.343871,0.020950,-2.117298,-9.556648
66.377555,-0.163709,-2.436337,-9.691925
66.410927,0.174783,-2.022873,-9.039481
66.443790,0.011223,-1.972593,-8.877717
66.477584,-0.120612,-2.281007,-9.608873
66.510896,-0.052076,-2.486318,-9.943624
66.544269,0.004789,-2.346701,-9.146476
66.577569,-0.034119,-2.440676,-9.716616
66.612812,-0.160866,-2.642246,-9.423465
66.644290,-0.096071,-2.332934,-9.758366
66.677529,0.011074,-2.328295,-9.879128
66.710908,0.064197,-2.138847,-9.339965
66.744297,-0.192441,-2.440228,-10.103293
66.777587,0.109688,-2.274573,-9.593460
66.810908,0.055817,-1.703086,-8.998779
66.844268,-0.411069,-2.258262,-9.926116
66.877606,0.013917,-1.961520,-9.673968
66.910994,-0.001945,-1.826093,-9.981035
66.944240,-0.129740,-1.321647,-9.851743
66.977589,0.024691,-1.564068,-9.039930
67.010969,-0.243319,-1.639638,-10.475156
67.043527,-0.211296,-1.815169,-10.120801
67.077575,-0.164607,-2.009555,-8.124864
67.110954,-0.219825,-2.049659,-9.530310
67.143266,0.208004,-1.825794,-11.148998
67.177546,-0.088888,-1.232310,-8.582023
67.210396,-0.094425,-2.103830,-9.915042
67.244120,-0.306020,-2.022125,-8.208365
67.277596,0.236885,-1.649365,-9.020028
67.310931,-0.220723,-2.281756,-11.013122
67.344301,0.273248,-2.110863,-10.696777
67.377615,-0.126299,-2.118046,-8.756806
67.410998,0.071829,-1.806639,-10.260718
67.444318,0.019154,-1.902111,-10.332696
67.477597,-0.152037,-1.949548,-9.474194
67.510990,-0.021549,-1.944460,-9.666485
67.543758,0.009278,-1.740347,-9.799219
67.577599,-0.068985,-1.774167,-9.737865
67.610955,-0.092928,-2.011351,-9.519237
67.644671,-0.045192,-1.916178,-9.850696
67.677603,0.027235,-2.152464,-8.641581
67.711050,0.152486,-2.270682,-9.220549
67.746596,-0.101009,-2.285197,-9.574455
67.777569,-0.138719,-2.435439,-9.185383
67.810870,-0.032173,-2.593761,-9.591065
67.844237,-0.109389,-2.912800,-9.780513
67.876815,-0.131387,-2.864016,-9.808946
67.910874,0.025888,-2.669032,-9.426907
67.944250,-0.141862,-3.195625,-9.851594
67.976645,-0.009727,-2.690131,-10.179461
68.011380,0.057313,-2.884069,-9.816128
68.044219,-0.161764,-2.810893,-9.825706
68.077575,-0.056415,-2.663196,-10.059597
68.111179,0.034418,-2.418529,-9.402216
68.144111,-0.357198,-2.501431,-9.690279
68.177645,-0.136325,-2.377976,-9.760162
68.211045,-0.163709,-2.311385,-9.050106
68.243852,-0.279383,-2.535849,-9.372886
68.277681,-0.156975,-1.866796,-8.738400
68.310978,-0.182714,-1.929047,-9.402515
68.343921,0.369020,-2.593013,-9.968615
68.377551,-0.001796,-1.840010,-9.946168
68.410946,-0.252448,-2.045320,-9.635659
68.443850,0.055817,-1.863653,-9.671274
68.477595,0.188550,-2.054149,-10.393451
68.510677,-0.070183,-1.737355,-9.256613
68.544877,-0.443392,-1.906451,-9.885712
68.577622,-0.178225,-1.989802,-10.074562
68.610936,-0.102954,-1.752169,-9.529412
68.644408,0.073026,-1.813822,-9.772882
68.677626,-0.093228,-1.729723,-9.571911
68.710939,-0.004789,-1.606118,-9.804007
68.744324,0.043995,-1.661635,-9.128818
68.778113,0.154132,-1.551797,-9.673818
68.811047,0.078413,-1.580978,-9.319763
68.845817,0.323827,-1.350079,-9.347746
68.877558,0.097268,-1.668818,-9.241948
68.910843,-0.075270,-1.684082,-9.521930
68.944219,-0.164158,-1.753516,-9.751932
68.978853,-0.130489,-2.003120,-9.724397
69.011370,-0.024392,-2.060434,-9.293276
69.044241,0.151289,-2.454294,-9.914743
69.077584,0.207854,-2.460280,-9.907111
69.110879,-0.004639,-2.635512,-9.732628
69.144244,-0.090085,-2.371242,-9.619498
69.177816,0.074971,-2.540039,-9.152761
69.210863,0.164009,-2.661699,-9.505769
69.244283,-0.015563,-2.414788,-9.598248
69.278429,0.082154,-2.561139,-9.342359
69.310935,-0.161165,-2.891850,-9.524325
69.344237,-0.008230,-2.661998,-10.171231
69.378171,0.069434,-2.426011,-9.388898
69.410907,-0.108641,-2.681602,-9.682647
69.444287,-0.121959,-2.565179,-9.865959
69.477635,0.085895,-2.635661,-9.494097
69.510900,-0.014366,-2.470904,-9.563681
69.544258,-0.023344,-2.392940,-10.039695
69.577632,0.036663,-2.415536,-9.575652
69.610647,-0.078712,-2.452199,-9.670526
69.644239,0.068088,-2.281157,-9.744150
69.677622,-0.065544,-2.170721,-9.838874
69.710910,-0.089038,-1.999828,-9.675763
69.744227,0.023045,-2.243148,-9.981185
69.777765,-0.003591,-2.254970,-9.538541
69.810714,-0.165505,-1.997883,-9.722452
69.844285,-0.068985,-2.050108,-9.249131
69.877582,-0.164607,-2.261255,-9.317368
69.919049,0.038009,-2.245243,-9.446361
69.944510,0.028432,-2.030206,-9.125227
69.977592,0.037261,-2.270532,-9.319314
70.011188,-0.041900,-2.026914,-9.423316
70.044220,-0.127645,-2.000128,-9.617552
70.078792,-0.106546,-1.809034,-9.466712
70.110885,0.105349,-1.788832,-9.559640
70.144224,0.173137,-1.927102,-9.480330
70.177567,0.010325,-1.806340,-9.374682
70.211128,0.126448,-1.885651,-9.578795
70.244563,0.103703,-1.941468,-9.461475
70.279006,0.087391,-1.990700,-9.506517
70.310905,-0.077066,-2.150519,-9.710181
70.344611,0.053572,-2.051754,-9.586426
70.377751,0.368122,-2.145281,-9.442919
70.411078,0.124503,-2.187481,-9.521781
70.444990,0.070332,-2.106673,-9.721554
70.477782,0.215785,-2.300311,-9.463869
70.510886,0.345825,-2.106374,-9.651970
70.546438,0.166852,-2.173564,-9.729335
70.577953,0.118368,-2.149471,-9.835133
70.611485,0.315747,-2.288190,-9.624585
70.645163,0.340587,-2.245392,-9.601391
70.677989,0.335799,-2.294924,-9.511455
70.710919,0.162812,-2.327247,-9.444864
70.745495,0.193638,-2.457885,-9.542282
70.778404,0.347471,-2.522531,-9.664241
70.812028,0.287614,-2.465816,-9.718262
70.847795,0.338642,-2.392192,-9.559341
70.878366,0.299436,-2.579395,-9.755822
70.911025,0.322630,-2.451301,-9.714820
70.944316,0.509085,-2.286544,-9.643590
70.977930,0.438155,-2.495745,-9.805653
71.011109,0.333704,-2.403864,-9.798620
71.044536,0.392962,-2.374534,-9.878230
71.077711,0.431271,-2.422869,-9.720955
71.111373,0.283424,-2.327546,-9.679804
71.144397,0.207405,-2.238359,-9.699856
71.177806,0.269657,-2.280858,-9.872095
71.211219,0.340887,-2.251827,-9.530460
71.245008,0.306469,-2.141241,-9.291779
71.278345,0.185857,-2.110265,-9.299860
71.311623,0.125401,-2.204241,-9.436933
71.344472,0.246462,-2.235666,-9.099339
71.378817,0.238531,-2.197806,-8.999527
71.411457,0.280730,-2.206934,-9.204388
71.445299,0.170443,-2.312133,-9.450700
71.478957,0.234790,-2.193167,-9.088265
71.511716,0.271303,-2.043075,-9.268884
71.545311,0.258733,-2.136452,-9.055493
71.578923,0.191393,-2.244046,-9.821665
71.611781,0.360041,-2.179998,-9.855335
71.644808,0.385331,-2.048911,-9.447857
71.679428,0.256787,-2.233421,-9.747592
71.710222,0.281179,-2.154559,-10.177217
71.745191,0.317393,-2.149471,-9.777371
71.778276,0.374856,-2.019432,-9.737416
71.812017,0.478109,-2.172067,-9.837078
71.845109,0.365578,-2.092308,-9.916389
71.878378,0.335948,-2.221001,-9.750136
71.911593,0.225662,-2.185835,-9.709433
71.946212,0.178524,-2.461477,-9.662595
71.978599,0.319338,-2.228632,-9.163984
72.011926,0.211146,-2.210226,-9.286692
72.045462,0.066591,-2.472700,-9.692224
72.077043,0.140365,-2.520137,-9.513550
72.111664,0.241524,-2.374235,-9.324551
72.145483,0.285519,-2.383363,-9.454890
72.188504,0.291355,-2.448458,-9.649426
72.211653,0.277139,-2.463123,-9.451598
72.246141,0.311856,-2.412843,-9.766297
72.279782,0.198576,-2.379323,-9.700754
72.312046,0.242571,-2.369746,-9.780513
72.345573,0.319637,-2.364957,-9.425560
72.379296,0.475565,-2.446064,-9.457584
72.412985,0.300483,-2.277566,-9.823162
72.445536,0.322780,-2.350741,-9.685340
72.479436,0.383385,-2.324254,-9.627279
72.512562,0.380692,-2.106524,-9.547220
72.544050,0.349566,-2.274872,-9.553056
72.576869,0.353906,-2.325302,-9.568619
72.612507,0.358395,-2.235366,-9.590616
72.643943,0.264120,-2.231925,-9.436484
72.679090,0.189747,-2.246440,-9.735172
72.713822,0.335051,-2.193616,-9.786499
72.743839,0.275942,-2.210077,-9.746245
72.779323,0.246163,-2.030505,-9.651521
72.812555,0.273697,-2.062529,-9.285494
72.844823,0.216683,-2.079289,-9.503524
72.877682,0.233742,-2.100837,-9.685041
72.911004,0.397003,-2.219654,-9.609322
72.943672,0.256189,-2.143635,-9.542282
72.977721,0.174334,-2.161892,-9.673219
73.011149,0.245714,-2.144084,-9.543928
73.044403,0.200372,-2.490657,-9.526869
73.077675,0.270704,-2.197806,-9.353283
73.110970,0.262623,-2.103531,-9.302255
73.144558,0.331010,-2.141241,-9.479581
73.177313,0.283873,-2.502030,-9.411943
73.211237,0.272799,-2.515797,-9.329041
73.256300,0.210697,-2.335178,-9.623688
73.278042,0.165804,-2.334580,-9.208877
73.310968,0.270255,-2.360019,-9.561286
73.344287,0.511180,-2.299264,-9.531059
73.378133,0.438155,-2.292081,-9.307791
73.410695,0.372611,-2.466116,-9.643889
73.444370,0.224015,-2.583585,-9.917736
73.477706,0.265317,-2.614412,-9.453843
73.510911,0.341186,-2.702851,-9.597051
73.544320,0.300633,-2.612317,-9.916389
73.577647,0.123455,-2.672773,-9.651970
73.610783,0.146201,-2.663794,-9.900677
73.644312,0.239878,-2.749091,-9.810143
73.677692,0.317692,-2.377078,-9.649875
73.710994,0.239578,-2.464320,-9.832589
73.744246,0.273398,-2.523579,-9.536446
73.778736,0.249904,-2.338021,-9.291181
73.810925,0.214289,-2.239257,-9.350739
73.844316,0.264269,-2.180747,-9.519835
73.877681,0.200222,-2.264397,-9.475840
73.910921,0.370516,-2.167428,-9.490954
73.944325,0.378447,-2.087220,-9.112807
73.977680,0.214438,-1.996087,-9.570564
74.010996,0.188251,-2.252126,-9.691775
74.044225,0.338792,-2.165333,-9.394584
74.077609,0.374257,-2.080037,-9.383660
74.110921,0.277588,-2.062379,-9.451149
74.144323,0.316794,-2.178801,-9.732179
74.177627,0.269806,-2.274124,-9.823611
74.210998,0.272500,-2.222497,-9.595255
74.244252,0.302279,-2.212471,-9.700754
74.277920,0.297041,-2.212471,-9.698210
74.312567,0.481551,-2.216511,-9.605880
74.344226,0.334452,-2.035144,-9.446510
74.377589,0.299136,-2.187032,-9.752530
74.410930,0.319637,-2.236863,-9.915042
74.444308,0.320236,-2.149771,-9.587025
74.477648,0.263521,-2.066719,-9.389945
74.510989,0.324276,-2.250031,-9.777969
74.544336,0.229852,-2.259459,-9.647181
74.577661,0.328766,-2.080935,-9.392788
74.610989,0.137672,-2.100987,-9.389496
74.644273,0.427380,-2.079887,-9.234915
74.677681,0.511180,-2.436935,-9.253920
74.710917,0.426632,-2.228782,-9.464767
74.744287,0.322780,-2.276668,-9.579094
74.777662,0.262324,-2.316473,-9.583134
74.810972,0.331010,-2.444717,-9.744749
74.844258,0.423340,-2.373337,-9.260803
74.877658,0.246761,-2.427508,-9.784554
74.910936,0.281778,-2.535999,-9.822713
74.943615,0.308713,-2.341314,-9.481826
74.977679,0.293300,-2.527619,-9.415684
75.010885,0.165355,-2.522980,-9.769440
75.044264,0.178524,-2.465068,-9.881373
75.077658,0.259481,-2.370045,-9.601840
75.110921,0.268609,-2.610372,-9.564728
75.144255,0.243918,-2.653768,-9.417779
75.177679,0.238082,-2.384261,-9.461774
75.210928,0.198127,-2.384111,-9.676661
75.244259,0.223118,-2.499636,-9.651371
75.277666,0.277438,-2.441275,-9.235514
75.310916,0.293899,-2.286694,-9.417180
75.344253,0.314400,-2.339667,-9.857430
75.377605,0.188400,-2.363311,-9.498586
75.412352,0.356749,-2.161892,-9.421670
75.444254,0.656484,-2.098144,-9.574156
75.477550,0.437855,-2.203492,-9.621892
75.510944,0.338043,-2.222048,-10.008569
75.544250,0.334901,-2.203792,-9.805055
75.577615,0.347172,-2.127773,-9.399073
75.610979,0.293749,-2.190324,-9.556199
75.644247,0.215785,-2.278464,-9.594806
75.677685,0.255740,-2.235217,-9.673070
75.710930,0.429026,-2.162490,-9.581488
75.744219,0.358245,-2.070460,-9.388748
75.777652,0.184659,-2.185535,-9.596602
75.810945,0.265766,-2.270233,-9.589270
75.844256,0.340138,-2.182991,-9.452346
75.877648,0.312454,-2.172217,-9.579393
75.911001,0.121211,-2.114754,-9.660051
75.944262,0.187952,-2.304352,-9.803409
75.977521,0.193937,-2.331138,-9.786200
76.010922,0.291355,-2.197956,-9.681300
76.044259,0.253645,-2.158749,-9.506517
76.077584,0.338792,-2.178951,-9.713623
76.110923,0.350464,-2.204690,-9.750285
76.144209,0.352708,-2.327995,-9.661248
76.177647,0.142161,-2.209628,-9.468209
76.210988,0.304224,-2.247637,-9.619647
76.244224,0.279832,-2.313630,-9.382762
76.277735,0.272799,-2.343409,-9.663942
76.310926,0.446235,-2.263649,-9.511455
76.344313,0.361238,-2.358971,-9.302853
76.377654,0.179123,-2.493949,-9.555899
76.410741,0.238232,-2.466565,-9.689381
76.444413,0.386677,-2.417183,-9.336373
76.487327,0.384433,-2.520735,-9.706739
76.510964,0.415409,-2.516994,-9.741756
76.544240,0.341186,-2.432147,-9.494695
76.577540,0.536021,-2.479135,-9.555301
76.610919,0.369468,-2.511308,-9.708984
76.644280,0.323378,-2.521633,-9.955446
76.677583,0.483496,-2.448757,-9.723799
76.710995,0.495617,-2.662896,-10.345715
76.744367,0.233593,-2.579246,-9.807748
76.777688,0.335350,-2.342361,-9.519536
76.810923,0.312604,-2.431249,-9.625334
76.844315,0.445188,-2.333083,-9.941529
76.877655,0.541109,-2.385608,-9.559640
76.911037,0.446684,-2.184039,-9.527168
76.944354,0.600068,-2.280559,-9.918035
76.977583,0.558767,-2.038287,-9.630721
77.010981,0.488884,-1.951643,-9.184336
77.044410,0.407478,-2.208730,-9.324551
77.077611,0.353606,-2.322159,-9.815380
77.111052,0.466886,-2.158450,-9.621144
77.144586,0.502800,-2.184188,-9.366900
77.177616,0.389221,-2.258860,-9.426159
77.210929,0.448181,-2.277117,-9.388598
77.244311,0.336397,-2.235516,-9.485717
77.277618,0.295844,-2.237012,-9.176554
77.311032,0.364530,-2.165333,-9.422717
77.344262,0.380692,-2.365107,-9.841119
77.376788,0.367822,-2.287442,-9.668580
77.410931,0.448181,-2.346850,-9.674716
77.443974,0.340138,-2.339967,-9.632816
77.477712,0.300184,-2.298665,-9.939434
77.510924,0.465390,-2.188229,-9.374981
77.544255,0.381739,-2.284150,-9.756421
77.577585,0.328317,-2.316622,-9.930306
77.611531,0.394010,-2.317371,-9.633714
77.644255,0.424836,-2.429154,-9.424513
77.677570,0.497563,-2.287741,-9.669628
77.710925,0.590192,-2.272627,-9.576550
77.744283,0.514472,-2.211423,-9.246737
77.777591,0.509983,-2.252575,-9.628027
77.811019,0.527940,-2.257663,-9.668132
77.843747,0.532879,-2.333532,-9.061180
77.877712,0.354354,-2.520287,-9.525971
77.910975,0.519111,-2.165184,-9.252872
77.944443,0.626555,-2.087818,-9.720357
77.977613,0.660374,-2.333831,-9.991809
78.010972,0.487686,-2.328295,-9.411045
78.044290,0.502950,-2.450104,-9.493648
78.077608,0.556522,-2.223395,-9.814033
78.110987,0.531681,-2.280858,-9.705093
78.144250,0.630895,-2.289537,-9.537344
78.177658,0.579717,-2.276518,-9.625783
78.210932,0.525097,-2.341912,-9.877632
78.244256,0.641519,-2.278464,-9.856682
78.277689,0.608748,-2.422121,-9.994802
78.310884,0.628949,-2.232972,-9.411943
78.344318,0.526594,-2.166381,-9.428703
78.377694,0.462097,-2.266193,-9.652269
78.410917,0.345376,-2.313031,-9.454890
78.444290,0.559365,-1.977980,-9.095149
78.476859,0.659028,-1.870088,-9.363010
78.510914,0.492325,-2.119393,-9.974151
78.544257,0.521655,-2.263050,-9.390843
78.577695,0.468682,-2.124182,-9.106522
78.610918,0.500855,-2.051006,-9.467161
78.644269,0.493373,-2.168027,-9.415085
78.677608,0.545449,-2.183141,-9.292677
78.710921,0.561610,-2.254970,-9.925068
78.744265,0.441596,-2.459980,-9.607227
78.781707,0.456860,-2.587177,-9.888406
78.810989,0.511180,-2.446363,-9.918783
78.844242,0.452221,-2.453396,-9.716616
78.877589,0.577921,-2.440377,-9.453693
78.910946,0.334751,-2.532857,-9.661547
78.944242,0.420497,-2.459980,-9.620844
78.977615,0.507290,-2.427807,-9.434988
79.010969,0.422741,-2.509213,-9.579393
79.044346,0.435461,-2.286844,-9.699407
79.077608,0.584056,-2.418529,-9.780663
79.110975,0.403886,-2.342960,-9.605281
79.144079,0.392663,-2.311984,-9.728438
79.177625,0.407029,-2.263499,-9.275468
79.210985,0.336248,-2.126875,-9.691925
79.244258,0.368720,-2.179550,-9.770936
79.277648,0.466287,-2.215763,-9.342359
79.311156,0.463295,-2.168476,-9.628626
79.344261,0.383086,-2.326349,-10.012161
79.377692,0.434413,-2.233421,-9.517591
79.410988,0.409573,-2.295972,-9.635958
79.444059,0.482599,-2.371541,-9.881522
79.477690,0.297341,-2.175958,-9.677709
79.510919,0.512976,-2.145431,-9.598548
79.544359,0.473321,-2.421672,-9.533902
79.577573,0.564304,-2.237611,-9.755373
79.611196,0.499807,-1.980524,-9.506068
79.644298,0.540061,-2.263350,-9.668281
79.677642,0.471076,-2.219504,-9.521781
79.710989,0.435012,-2.070759,-9.195260
79.743742,0.473321,-2.129718,-9.459080
79.777661,0.483197,-2.081683,-9.558144
79.819496,0.408825,-2.348496,-9.670227
79.844286,0.435311,-2.083928,-9.228481
79.877535,0.566847,-2.062529,-9.444415
79.910916,0.363333,-2.278912,-9.667084
79.944259,0.393561,-2.448159,-9.540935
79.977630,0.355851,-2.364359,-9.686837
80.010952,0.527940,-2.359869,-9.808646
80.044342,0.348967,-2.326050,-9.805504
80.077594,0.339989,-2.535251,-9.759414
80.110989,0.504746,-2.411346,-9.887658
80.144259,0.409573,-2.267540,-9.795777
80.178544,0.373808,-2.283851,-9.782459
80.210895,0.391167,-2.268437,-9.702400
80.244251,0.527641,-2.195112,-9.640298
80.277670,0.400893,-2.213818,-9.538990
80.310747,0.585852,-2.278464,-9.816128
80.344252,0.290307,-2.279661,-9.533602
80.377659,0.380093,-2.266043,-9.659153
80.410918,0.465838,-2.244495,-9.577298
80.444280,0.526145,-2.435888,-9.562484
80.477066,0.371713,-2.333382,-9.303302
80.510632,0.457907,-2.275620,-9.336074
80.544317,0.542755,-2.325002,-9.362561
80.577590,0.356749,-2.396831,-9.248383
80.610934,0.490380,-2.241951,-9.472548
80.644323,0.498012,-2.210675,-9.381116
80.677710,0.613985,-2.418230,-9.657507
80.710920,0.660075,-2.303753,-9.436784
80.744317,0.658878,-2.271131,-9.539738
80.777645,0.595130,-2.102633,-9.190471
80.810652,0.672795,-2.347000,-9.665438
80.843656,0.617277,-2.424814,-9.836181
80.877589,0.469430,-2.264696,-9.742205
80.910931,0.462247,-2.417931,-9.598398
80.949064,0.688058,-2.398627,-9.710032
80.977637,0.633738,-2.274872,-9.581488
81.010938,0.471226,-2.403266,-9.742354
81.044273,0.559066,-2.445016,-9.995401
81.077592,0.675189,-2.313779,-9.405807
81.110927,0.561460,-2.225789,-9.277414
81.144296,0.604258,-2.147676,-9.695815
81.177655,0.668754,-2.189276,-9.412392
81.211002,0.600068,-2.190324,-9.487961
81.244559,0.595280,-2.271730,-9.699257
81.277609,0.644213,-2.212172,-9.336373
81.310911,0.607251,-2.230428,-9.290582
81.344070,0.648403,-2.075248,-9.565028
81.377692,0.630595,-2.128970,-9.579842
81.410917,0.610843,-2.181495,-9.492750
81.444252,0.511929,-2.223993,-9.607376
81.477641,0.514024,-2.303454,-9.721853
81.510895,0.424836,-2.259309,-9.604384
81.544262,0.430822,-2.341912,-9.648528
81.577682,0.518214,-2.370195,-9.462672
81.610894,0.521206,-2.252875,-9.563381
81.644272,0.558168,-2.309290,-9.811639
81.677640,0.590641,-2.353734,-9.703148
81.710915,0.603211,-2.322907,-9.188676
81.744260,0.603211,-2.304202,-9.706739
81.777689,0.466287,-2.356128,-9.798770
81.810895,0.533327,-2.330988,-9.659003
81.844261,0.539612,-2.251977,-9.147973
81.877647,0.718885,-2.413890,-9.429002
81.910804,0.646308,-2.270832,-9.430349
81.944327,0.570140,-2.263948,-9.573856
81.980709,0.627603,-2.478386,-9.645984
82.010928,0.708709,-2.416434,-9.733376
82.044251,0.431271,-2.436935,-9.718711
82.077769,0.460751,-2.594509,-9.719160
82.110924,0.665612,-2.478536,-9.520584
82.144251,0.550985,-2.287292,-9.728288
82.177620,0.534375,-2.446961,-9.679953
82.210940,0.589593,-2.541835,-9.412392
82.244253,0.534375,-2.232523,-9.175806
82.277687,0.354354,-2.324554,-9.547968
82.310970,0.541109,-2.460729,-9.511605
82.344256,0.537966,-2.243148,-9.166828
82.377671,0.611142,-2.345504,-9.393387
82.411064,0.614584,-2.218906,-9.576101
82.444258,0.746868,-2.305100,-9.569218
82.477693,0.692996,-2.279810,-9.364656
82.510903,0.464192,-2.282803,-9.751932
82.544256,0.526893,-2.187481,-9.716616
82.577622,0.603211,-2.160695,-9.613213
82.610949,0.647804,-2.190773,-9.634013
82.644225,0.659925,-2.150369,-9.677559
82.677584,0.705267,-2.139894,-9.800865
82.710897,0.656633,-2.186283,-9.905465
82.744258,0.790115,-2.250331,-9.961132
82.777596,0.608149,-2.050408,-9.623239
82.811062,0.669652,-2.108469,-9.625633
82.844283,0.646458,-2.142887,-9.634462
82.877644,0.717837,-2.212471,-9.745946
82.910977,0.668156,-2.095600,-9.367948
82.943959,0.728312,-2.159797,-9.392190
82.977641,0.665013,-2.058189,-9.364656
83.010894,0.494720,-2.316024,-9.612015
83.043864,0.580615,-2.287891,-9.430947
83.077721,0.677134,-2.260656,-9.383660
83.118302,0.536470,-2.228932,-9.472847
83.144220,0.671298,-2.292081,-9.479432
83.177609,0.781136,-2.436337,-9.295371
83.210939,0.714695,-2.453097,-9.528365
83.244254,0.567147,-2.362413,-9.608125
83.277610,0.603510,-2.452349,-9.680253
83.310952,0.661871,-2.487964,-9.583134
83.344224,0.684616,-2.341314,-9.474942
83.377630,0.696887,-2.356577,-9.821815
83.410925,0.742528,-2.414639,-10.008868
83.444249,0.664714,-2.531061,-9.745198
83.477604,0.666360,-2.534054,-9.627878
83.510670,0.711702,-2.386506,-9.836181
83.544489,0.650348,-2.368549,-9.619797
83.577627,0.658279,-2.442323,-9.590467
83.610921,0.686412,-2.398328,-9.570265
83.643470,0.700778,-2.459831,-9.677858
83.677701,0.656633,-2.388750,-9.626830
83.710934,0.728761,-2.299713,-9.469855
83.744270,0.717538,-2.329043,-9.360615
83.777567,0.666210,-2.296570,-9.780813
83.810975,0.672196,-2.317221,-9.454292
83.844518,0.622365,-2.178502,-9.241200
83.877717,0.516119,-2.201248,-9.396679
83.910924,0.617726,-2.185685,-9.672471
83.944403,0.673244,-2.259309,-9.528964
83.977574,0.604558,-2.159048,-9.375280
84.010978,0.661871,-2.314827,-9.492900
84.044446,0.752704,-2.297767,-9.612015
84.077505,0.596477,-2.185236,-9.349392
84.111020,0.550836,-2.295224,-9.731430
84.143467,0.650648,-2.334280,-9.784853
84.177602,0.577622,-2.125977,-9.888556
84.210995,0.571187,-2.296870,-9.417629
84.249324,0.819445,-2.263050,-9.615457
84.277842,0.708260,-2.197656,-9.794131
84.311025,0.592287,-2.057740,-9.385007
84.344253,0.695540,-2.197507,-9.601241
84.377612,0.665761,-2.279960,-9.712725
84.410943,0.668455,-2.157552,-9.512802
84.444260,0.689704,-2.181046,-9.343107
84.477683,0.684616,-2.228183,-9.540037
84.510964,0.715742,-2.251378,-9.386055
84.544219,0.617277,-2.360617,-9.544975
84.576961,0.753153,-2.259459,-9.544377
84.610946,0.728312,-2.383064,-9.586875
84.644330,0.693595,-2.206186,-9.374682
84.677483,0.640472,-2.349544,-9.772582
84.710996,0.640322,-2.393389,-9.711528
84.744323,0.702873,-2.413292,-9.481527
84.777570,0.642118,-2.366154,-9.604384
84.810990,0.631643,-2.403116,-9.734872
84.844413,0.714994,-2.704198,-9.551560
84.877647,0.663068,-2.468061,-9.524774
84.911010,0.684317,-2.328893,-9.863266
84.944146,0.648403,-2.423318,-9.599296
84.977683,0.628800,-2.470904,-9.492301
85.010940,0.584954,-2.163388,-9.482125
85.044261,0.663218,-2.497241,-9.708834
85.077797,0.690901,-2.355530,-9.532854
85.110905,0.646757,-2.207832,-9.320062
85.144256,0.743426,-2.192419,-9.517441
85.177620,0.636880,-2.271281,-9.525971
85.210754,0.622814,-2.246141,-9.500232
85.244260,0.630745,-2.016588,-9.300758
85.277378,0.691650,-2.067916,-9.453095
85.312276,0.662469,-2.204690,-9.637155
85.344289,0.730108,-2.202146,-9.602438
85.377672,0.710804,-2.080486,-9.497090
85.410920,0.637180,-2.257513,-9.799518
85.444289,0.630895,-2.179699,-9.710780
85.477594,0.671298,-2.226986,-9.474942
85.510919,0.702125,-2.106673,-9.452795
85.544013,0.641220,-2.130916,-9.717963
85.577587,0.645111,-2.260806,-9.676661
85.610953,0.703621,-2.291482,-9.407603
85.644290,0.672795,-2.055346,-9.492451
85.677782,0.630745,-2.148125,-9.653167
85.711117,0.778892,-2.193317,-9.631918
85.744260,0.767818,-2.244195,-9.629224
85.777075,0.729210,-2.103381,-9.532256
85.810930,0.922998,-2.384411,-9.732328
85.844315,1.022660,-2.294924,-9.264694
85.877793,0.789067,-2.332185,-9.471950
85.911002,0.779490,-2.393689,-9.778269
85.944237,0.854312,-2.416734,-9.635210
85.977650,0.804032,-2.322159,-9.386055
86.011016,0.674141,-2.388601,-9.462223
86.044046,0.942302,-2.559643,-9.363010
86.076941,1.051990,-2.308841,-9.350440
86.110997,0.816003,-2.164436,-9.596153
86.144256,1.001860,-2.457586,-9.588970
86.177587,0.987045,-2.446213,-9.541085
86.210917,0.839347,-2.312582,-9.751632
86.244306,0.728911,-2.429004,-9.698808
86.277621,0.973278,-2.554405,-9.345052
86.310944,0.782034,-2.496493,-9.442919
86.344380,0.858651,-2.375731,-9.808646
86.380048,0.956218,-2.469408,-9.657656
86.410893,0.935418,-2.615459,-9.769589
86.444258,0.806875,-2.420325,-9.798321
86.477530,0.966394,-2.342960,-9.627878
86.510917,0.964000,-2.411047,-9.392190
86.543798,0.903544,-2.375432,-9.608873
86.577719,0.934819,-2.284749,-9.523277
86.610991,0.832913,-2.329192,-9.493648
86.644874,0.860297,-2.335328,-9.685191
86.677655,0.901748,-2.338321,-9.613213
86.711055,0.933024,-2.199901,-9.536146
86.744382,0.748065,-2.184338,-9.571313
86.777641,0.914767,-2.195412,-9.445463
86.810993,0.992582,-2.242848,-9.445164
86.844437,0.793706,-2.195112,-9.338019
86.877646,0.896062,-2.180896,-9.569068
86.910996,0.894416,-2.091859,-9.295969
86.944314,0.913421,-2.090063,-9.589569
86.977663,0.877207,-2.164585,-9.450251
87.010932,0.979263,-2.004318,-9.371988
87.044271,0.963401,-2.102334,-9.446361
87.077657,0.868977,-2.190922,-9.732628
87.111084,1.032536,-2.112360,-9.824808
87.144319,0.931527,-2.191222,-9.668880
87.177691,0.847877,-2.174162,-9.860423
87.210999,0.849523,-2.193915,-9.701502
87.244299,0.877955,-2.230578,-9.480629
87.277594,0.792359,-2.161592,-9.319613
87.311011,0.893668,-2.063576,-9.533902
87.343624,0.835008,-2.134657,-9.470304
87.377681,0.814955,-2.354632,-9.736818
87.410903,0.895613,-2.287592,-9.405508
87.444235,0.864188,-2.252426,-9.371390
87.477586,0.858502,-2.306297,-9.556947
87.510269,0.873915,-2.244943,-9.196607
87.544253,0.923147,-2.232822,-9.430648
87.577629,0.812711,-2.205737,-9.578645
87.610888,0.856706,-2.185685,-9.626531
87.644248,0.870772,-2.295074,-9.547519
87.677669,0.862841,-2.303903,-9.703597
87.710919,0.847278,-2.303604,-9.593011
87.744293,0.835756,-2.264098,-9.670077
87.777731,0.888281,-2.377826,-9.973104
87.810973,0.908333,-2.377976,-9.606628
87.844259,0.946941,-2.263499,-9.730832
87.877694,0.872269,-2.354781,-9.659602
87.911178,0.891423,-2.455341,-9.589419
87.944315,0.886934,-2.447410,-9.545724
87.977621,0.908782,-2.465816,-9.531956
88.011016,0.814058,-2.402069,-9.326497
88.044318,0.846381,-2.294924,-9.400570
88.077762,0.849972,-2.480332,-9.527018
88.110977,0.877057,-2.533904,-9.652868
88.144324,0.864936,-2.353734,-9.381266
88.177621,0.914767,-2.231326,-9.303152
88.210991,0.876758,-2.416285,-9.587324
88.244238,0.940805,-2.384860,-9.589719
88.277480,0.881996,-2.273376,-9.327843
88.310894,0.842939,-2.271430,-9.286243
88.344255,0.892919,-2.339967,-9.439028
88.377755,0.839048,-2.251228,-9.386803
88.410930,0.829022,-2.249582,-9.518339
88.444482,0.945594,-2.297169,-9.602738
88.477571,0.859699,-2.330988,-9.619946
88.511120,0.841442,-2.268886,-9.661547
88.544308,0.906537,-2.395335,-9.674865
88.577599,0.927786,-2.372290,-9.726642
88.611138,0.898007,-2.272029,-9.537344
88.648786,0.854162,-2.242998,-9.701502
88.677597,0.907884,-2.368399,-9.596602
88.710922,0.894715,-2.259010,-9.583434
88.744303,0.870323,-2.174162,-9.528215
88.777610,0.868977,-2.239556,-9.707937
88.810922,1.010539,-2.313480,-9.795777
88.844338,0.907734,-2.182991,-9.140341
88.877715,0.880798,-2.044572,-9.525821
88.910960,0.891423,-2.216062,-9.909805
88.944287,1.015327,-2.281606,-9.506966
88.977849,0.831117,-2.194963,-9.452795
89.010982,0.803732,-2.273675,-9.812537
89.044502,0.745671,-2.412843,-9.624585
89.077659,1.057078,-2.081384,-9.466114
89.111089,0.912822,-2.192419,-9.513550
89.143928,0.820941,-2.229530,-9.640148
89.177659,0.890675,-2.197956,-9.404910
89.210989,0.853114,-2.249283,-9.603935
89.244459,0.858202,-2.186134,-9.559491
89.277571,0.906836,-2.215464,-9.592263
89.310894,0.865984,-2.221150,-9.606329
89.344254,0.894715,-2.259908,-9.703597
89.377637,0.969088,-2.317670,-9.650174
89.410960,0.881696,-2.205737,-9.424363
89.444454,0.829770,-2.299414,-9.581488
89.477585,1.008743,-2.206934,-9.643440
89.510949,0.829321,-2.164136,-9.497389
89.544250,0.729659,-2.192718,-9.533004
89.577586,0.804630,-2.095001,-9.584481
89.610436,0.698833,-2.112659,-9.553206
89.644354,0.747467,-2.278912,-9.729784
89.677665,0.765424,-2.318418,-9.468059
89.717207,0.653341,-2.218008,-9.414038
89.744224,0.796250,-2.195711,-9.673219
89.777595,0.838898,-2.249732,-9.418527
89.810971,0.787870,-2.243896,-9.343257
89.844259,0.657980,-2.219953,-9.459829
89.877568,0.870623,-2.225041,-9.567123
89.911053,0.819445,-2.244794,-9.384857
89.943768,0.791611,-2.238509,-9.563232
89.977654,0.766322,-2.304352,-9.465665
90.011280,0.812711,-2.257513,-9.515645
90.044329,0.789217,-2.330090,-9.502926
90.077652,0.805229,-2.313181,-9.714371
90.110978,0.803583,-2.309739,-9.497389
90.144414,0.748364,-2.393838,-9.722003
90.177666,0.773804,-2.367501,-9.523277
90.210982,0.833511,-2.290136,-9.579393
90.244312,0.805378,-2.310637,-9.582685
90.277609,0.782782,-2.304950,-9.543479
90.310993,0.842191,-2.334879,-9.581339
90.344341,0.755098,-2.253473,-9.371988
90.377915,0.766471,-2.321261,-9.670077
90.410940,0.855509,-2.343259,-9.538092
90.444314,0.799393,-2.354632,-9.582985
90.477646,0.710056,-2.310936,-9.410596
90.510992,0.818098,-2.384411,-9.428553
90.544313,0.893518,-2.356876,-9.657357
90.577605,0.760485,-2.309290,-9.484220
90.610948,0.788169,-2.365705,-9.484220
90.644313,0.792808,-2.352537,-9.567422
90.677572,0.822438,-2.328145,-9.706889
90.710940,0.803583,-2.312582,-9.493797
90.744326,0.766172,-2.300910,-9.516842
90.777634,0.781435,-2.344306,-9.687286
90.810946,0.815404,-2.256316,-9.645535
90.844318,0.814656,-2.270981,-9.573707
90.886847,0.764376,-2.338919,-9.619647
90.910894,0.857604,-2.224143,-9.664989
90.944255,0.817499,-2.296271,-9.581189
90.977667,0.850421,-2.328444,-9.513850
91.010925,0.919257,-2.274722,-9.706141
91.044394,0.941553,-2.333083,-9.563830
91.077565,0.913720,-2.239107,-9.401468
91.110992,0.983304,-2.312582,-9.531657
91.144330,1.051691,-2.300162,-9.470603
91.177592,1.070845,-2.203941,-9.424962
91.210978,1.047650,-2.292231,-9.521481
91.244350,1.118431,-2.323955,-9.613661
91.277659,1.078926,-2.311834,-9.557994
91.311367,1.065009,-2.240005,-9.637754
91.344329,1.092992,-2.289537,-9.716317
91.377661,1.098679,-2.305699,-9.701502
91.410305,1.076980,-2.232972,-9.522828
91.444324,1.034182,-2.240604,-9.663493
91.477666,1.075185,-2.225191,-9.693870
91.510919,1.055132,-2.267091,-9.723350
91.544326,1.091346,-2.298665,-9.602438
91.577659,1.065907,-2.223395,-9.550811
91.610993,1.098529,-2.242400,-9.643590
91.644399,1.138334,-2.265594,-9.582087
91.677654,1.160930,-2.265594,-9.593310
91.710974,1.066655,-2.270383,-9.485717
91.744322,1.100175,-2.225191,-9.494845
91.777745,1.296656,-2.255568,-9.534800
91.811018,1.270618,-2.287143,-9.465066
91.844327,1.169310,-2.213967,-9.614260
91.877652,1.215849,-2.251827,-9.549914
91.923168,1.329877,-2.266791,-9.651671
91.944342,1.307879,-2.275471,-9.444415
91.977648,1.320150,-2.285048,-9.629224
92.010911,1.359506,-2.197357,-9.618899
92.044256,1.382402,-2.252126,-9.593460
92.077585,1.381653,-2.270981,-9.568918
92.110237,1.365342,-2.285646,-9.609471
92.144289,1.362050,-2.238210,-9.709882
92.177624,1.363846,-2.251677,-9.559491
92.210884,1.380606,-2.293877,-9.581488
92.244286,1.311321,-2.295373,-9.462672
92.277149,1.361900,-2.228632,-9.636557
92.310938,1.379409,-2.224442,-9.538541
92.344374,1.397815,-2.255867,-9.553655
92.377741,1.329278,-2.236264,-9.567571
92.411060,1.314613,-2.301658,-9.483023
92.444362,1.360554,-2.264996,-9.566075
92.477597,1.359506,-2.254820,-9.569068
92.510898,1.329129,-2.303005,-9.583583
92.544264,1.324789,-2.296271,-9.526420
92.577690,1.343195,-2.271131,-9.596153
92.610902,1.393924,-2.202595,-9.480629
92.643327,1.332271,-2.284000,-9.557994
92.677653,1.349779,-2.303155,-9.716017
92.711236,1.398114,-2.256616,-9.536446
92.744321,1.355167,-2.282504,-9.666037
92.777644,1.355615,-2.262302,-9.682198
92.810947,1.409786,-2.310038,-9.641196
92.844312,1.425948,-2.276369,-9.627728
92.877648,1.325537,-2.246889,-9.628326
92.910986,1.376416,-2.298815,-9.719908
92.944288,1.429389,-2.307195,-9.494995
92.977652,1.409936,-2.242400,-9.516842
93.010987,1.355915,-2.236414,-9.547220
93.051872,1.362499,-2.319017,-9.647630
93.077523,1.416520,-2.245692,-9.597201
93.110993,1.382102,-2.249283,-9.515047
93.144334,1.386741,-2.264547,-9.560089
93.177661,1.413827,-2.255418,-9.577298
93.210949,1.428342,-2.236264,-9.454441
93.244338,1.302193,-2.285946,-9.468957
93.277678,1.195647,-2.288340,-9.665588
93.310993,1.280046,-2.283851,-9.614410
93.344677,1.382850,-2.324853,-9.505769
93.377649,1.302791,-2.260506,-9.505320
93.410991,1.326884,-2.265295,-9.600643
93.444257,1.577835,-2.260506,-9.575503
93.477654,1.780751,-2.350891,-9.514149
93.510995,1.628863,-2.296570,-9.518937
93.544336,1.580529,-2.347898,-9.595255
93.577654,1.614947,-2.271580,-9.653616
93.610978,1.615545,-2.272328,-9.721404
93.644326,1.599533,-2.229081,-9.334877
93.677693,1.286929,-2.333831,-9.538391
93.710999,1.106909,-2.317520,-9.715568
93.744262,1.227671,-2.241951,-9.533154
93.777655,1.402454,-2.320962,-9.748340
93.810933,1.459318,-2.265295,-9.649576
93.844314,1.564218,-2.314228,-9.739062
93.877651,1.417717,-2.206934,-9.463420
93.911019,1.622279,-2.166231,-9.593609
93.944329,1.653106,-2.209328,-9.632516
93.977546,1.439116,-2.198853,-9.507116
94.011025,1.225725,-2.128671,-9.403563
94.044316,1.283488,-2.148125,-9.343257
94.077650,1.240241,-2.147376,-9.635958
94.110980,1.137586,-2.244943,-9.832888
94.151096,1.097781,-2.176856,-9.599595
94.177623,1.326585,-2.251079,-9.565476
94.210927,1.268074,-2.175808,-9.625483
94.244274,1.206421,-2.267839,-9.412691
94.277664,1.131750,-2.088267,-9.469855
94.311046,1.204177,-2.210975,-9.536296
94.344404,1.191607,-2.193317,-9.487213
94.377781,1.198041,-2.197058,-9.438430
94.410992,1.148809,-2.220252,-9.467760
94.444317,1.119180,-2.241801,-9.566973
94.478709,1.205374,-2.228034,-9.555450
94.511620,0.741032,-2.228782,-9.399223
94.544801,-0.239878,-2.349843,-9.822862
94.577693,-0.906238,-2.264696,-9.880325
94.611078,0.650348,-1.762345,-9.895140
94.644273,-1.914831,-2.452947,-9.660350
94.677651,0.312454,-2.288939,-9.503824
94.711028,0.816302,-2.233870,-9.497389
94.744216,0.663517,-2.241801,-9.209626
94.777579,0.381590,-2.459083,-9.410446
94.810982,-0.505195,-1.988605,-9.450401
94.844464,-0.589294,-2.261703,-9.788145
94.877787,-0.322630,-2.349394,-9.765250
94.911024,0.113280,-2.334729,-9.610968
94.944312,0.428278,-2.259010,-9.421819
94.977148,0.462247,-2.292530,-9.505470
95.011105,0.182115,-2.288789,-9.690578
95.044327,-0.054620,-2.247787,-9.601840
95.077653,-0.218628,-2.202595,-9.605132
95.110999,-0.163111,-2.236414,-9.722901
95.144414,-0.023793,-2.291333,-9.566973
95.177649,0.257087,-2.170870,-9.533154
95.211002,0.309611,-2.241502,-9.459679
95.252175,0.093377,-2.267989,-9.631768
95.277557,-0.045043,-2.235965,-9.675165
95.310927,-0.158173,-2.225640,-9.568170
95.344245,-0.125102,-2.231326,-9.580291
95.377591,0.013767,-2.189276,-9.584481
95.411006,0.114626,-2.238210,-9.507565
95.444628,0.180469,-2.146478,-9.676362
95.477610,0.061204,-2.191970,-9.607975
95.510980,-0.030378,-2.200948,-9.733825
95.544419,-0.063748,-2.228183,-9.606479
95.577572,0.021399,-2.229979,-9.630870
95.610946,0.142161,-2.217409,-9.547819
95.644372,0.163859,-2.216511,-9.537044
95.677627,0.135577,-2.249283,-9.598697
95.711004,0.041900,-2.220552,-9.570415
95.744313,-0.010475,-2.235965,-9.622490
95.777772,-0.007931,-2.238658,-9.610519
95.810994,0.134978,-2.299862,-9.716466
95.844346,0.152037,-2.447710,-9.734423
95.877812,0.100560,-2.194364,-9.556498
95.911006,0.020651,-2.222946,-9.397427
95.944328,-0.012121,-2.194813,-9.515196
95.977632,-0.009727,-2.187930,-9.611866
96.011012,0.002544,-2.227286,-9.568469
96.044320,0.072577,-2.192568,-9.582236
96.078120,0.136774,-2.278314,-9.681899
96.111752,0.101308,-2.219953,-9.677858
96.144220,0.044594,-2.277715,-9.754027
96.177596,-0.005986,-2.149771,-9.494546
96.210981,0.020202,-2.310936,-9.779915
96.245049,0.024541,-2.357176,-9.577747
96.277664,0.067938,-2.277117,-9.566075
96.317310,0.112681,-2.202295,-9.628027
96.344198,0.067788,-2.167877,-9.540935
96.377620,0.057164,-2.175060,-9.538990
96.411629,0.038458,-2.270084,-9.593909
96.444244,0.032024,-2.159647,-9.481527
96.477726,0.039206,-2.181645,-9.376028
96.511621,0.104600,-2.193466,-9.461624
96.544315,0.062551,-2.243447,-9.531807
96.577837,0.042948,-2.215015,-9.500082
96.610983,0.045043,-2.214716,-9.540486
96.644322,0.036962,-2.216661,-9.555450
96.677614,0.047437,-2.249732,-9.598398
96.710981,0.069734,-2.238958,-9.624286
96.744312,0.048185,-2.224742,-9.564279
96.777792,0.066591,-2.185535,-9.566374
96.810994,0.074373,-2.236713,-9.600343
96.844275,0.061952,-2.245392,-9.596602
96.877692,0.064795,-2.244345,-9.681899
96.911001,0.058361,-2.213219,-9.751183
96.944319,0.071080,-2.297618,-9.692972
96.977601,0.042798,-2.245542,-9.641046
97.010927,0.038907,-2.200051,-9.610519
97.044323,0.040404,-2.156804,-9.544078
97.077692,0.056266,-2.199003,-9.684293
97.110989,0.092928,-2.217110,-9.582386
97.144395,0.088738,-2.168775,-9.453992
97.177666,0.079011,-2.180896,-9.483173
97.210993,0.059857,-2.244046,-9.593310
97.244209,0.053123,-2.223993,-9.613362
97.277723,0.067040,-2.238958,-9.602588
97.310979,0.068686,-2.207383,-9.577897
97.344272,0.116572,-2.220851,-9.590317
97.377657,0.076468,-2.232972,-9.601690
97.416550,0.082004,-2.218307,-9.627728
97.444265,0.082154,-2.185685,-9.454142
97.477577,0.095472,-2.200350,-9.513101
97.510922,0.053871,-2.304801,-9.528515
97.544273,0.116123,-2.228034,-9.614859
97.577619,0.061054,-2.209628,-9.493498
97.610981,0.080059,-2.258860,-9.626980
97.644239,0.080957,-2.295523,-9.666934
97.677648,0.055817,-2.248236,-9.653167
97.711036,0.038009,-2.231775,-9.485118
97.744317,0.031575,-2.224143,-9.531807
97.778338,0.047287,-2.210526,-9.620994
97.810983,0.067489,-2.204540,-9.563681
97.844309,0.079909,-2.157103,-9.555151
97.877606,0.045791,-2.174312,-9.634611
97.910993,0.008530,-2.254970,-9.535697
97.944264,0.025439,-2.195262,-9.601690
97.977658,0.056415,-2.195412,-9.573108
98.010996,0.058510,-2.203492,-9.598548
98.044356,0.054620,-2.183141,-9.616056
98.077647,0.053423,-2.208730,-9.650623
98.111180,0.058510,-2.205737,-9.585978
98.144631,0.075869,-2.195412,-9.592263
98.177642,0.071080,-2.218606,-9.659752
98.210985,0.068536,-2.219055,-9.601241
98.244646,0.076019,-2.196310,-9.639101
98.277583,0.073026,-2.177155,-9.594806
98.310996,0.061354,-2.166680,-9.534201
98.356722,0.043995,-2.199302,-9.599445
98.378103,0.021698,-2.158600,-9.581488
98.412062,0.045491,-2.175958,-9.626381
98.444257,0.044743,-2.175210,-9.601690
98.477603,0.055218,-2.187181,-9.573408
98.510251,0.047437,-2.167877,-9.647930
98.544259,0.056715,-2.170421,-9.569816
98.577573,0.059109,-2.215015,-9.585828
98.610923,0.042798,-2.188827,-9.579543
98.644247,0.073924,-2.208580,-9.544676
