time_tick,acc_X_value,acc_Y_value,acc_Z_value
0.031334,0.736692,-1.073838,-10.192780
0.063859,0.672196,-0.906238,-9.954398
0.096982,0.716939,-0.821240,-9.011349
0.130572,1.066954,-0.514173,-10.132174
0.163948,0.749562,-0.874962,-10.848365
0.197235,0.601565,-0.937663,-9.736219
0.229622,0.686412,-0.660973,-9.006710
0.263859,0.870174,-0.336996,-10.019792
0.297365,0.635534,-0.378297,-9.930605
0.330512,1.012035,-0.212643,-10.312494
0.363835,1.096135,-0.077216,-9.639250
0.397239,0.677134,-0.247509,-9.291929
0.430589,0.931078,-0.130189,-10.030866
0.463862,0.644213,-0.152636,-9.717214
0.496524,0.613386,-0.128843,-9.327544
0.530569,0.505943,-0.042798,-9.194512
0.563831,0.763478,-0.260528,-10.438942
0.597237,0.503249,-0.401342,-10.667896
0.630735,0.183911,-0.340288,-9.964873
0.663850,0.603360,0.203514,-10.033111
0.697225,0.640322,0.254692,-9.805354
0.730491,0.637030,0.084548,-9.574605
0.763834,0.698533,-0.259481,-9.692972
0.797141,0.656933,-0.488584,-9.787098
0.830566,0.584206,-0.553978,-9.636557
0.863891,0.613386,-0.471675,-9.715568
0.897224,0.226559,-0.325024,-7.447430
0.930919,-0.306618,-0.571187,-6.831051
0.963844,1.029992,0.266963,-12.580333
0.997147,0.880050,-0.031126,-8.912435
1.030581,0.661571,-0.634037,-8.559128
1.063819,0.508487,-0.979712,-9.626381
1.097136,0.402390,-1.004703,-10.744663
1.130459,0.922698,-0.371264,-10.089376
1.163848,0.707961,-0.302428,-9.686987
1.197242,0.578520,0.127496,-9.297316
1.229912,0.823635,0.984950,-9.899330
1.263841,0.720381,0.532579,-9.634761
1.297177,0.703621,-0.054769,-9.421071
1.330522,0.796998,-0.442494,-10.396743
1.363874,0.567596,-0.352708,-10.661012
1.396348,0.092030,0.319937,-9.561586
1.430519,0.394309,-0.597375,-9.308390
1.463838,0.846381,-0.666959,-10.283014
1.497234,0.983154,-0.222968,-10.631084
1.530464,0.694044,-0.310060,-9.943624
1.563900,0.355402,-0.636132,-9.354330
1.597256,0.354055,-1.003805,-9.771385
1.630508,0.682970,-0.750759,-9.707488
1.663971,0.743725,-0.615332,-9.390095
1.697190,0.986147,-0.749412,-9.196008
1.730502,1.354269,-0.829172,-9.370342
1.763829,1.108106,-0.426782,-9.005513
1.797366,1.084462,-0.613835,-9.975797
1.830507,1.125914,-0.285668,-10.313841
1.863797,0.842340,0.398948,-10.523640
1.897172,0.751657,0.598572,-9.826005
1.930515,0.890525,0.336697,-9.583883
1.963853,1.130852,0.246312,-9.478384
1.997165,1.209115,-0.359742,-9.903520
2.030509,0.812860,-1.573945,-10.213730
2.063855,0.547992,-1.570203,-9.381266
2.097181,0.431720,-1.422207,-9.394883
2.130506,0.817799,-1.018021,-9.875237
2.163749,0.761533,-0.197529,-10.017697
2.197083,0.586002,-0.042349,-9.666186
2.230033,0.686263,0.868827,-9.552757
2.263763,1.030292,0.421694,-9.409997
2.297094,1.337958,-0.068088,-10.352449
2.330429,1.155543,0.031425,-10.777884
2.363788,0.902197,0.033071,-9.904717
2.397035,0.673992,0.281179,-9.176105
2.430511,0.430972,0.389221,-9.489757
2.463796,0.113878,-0.139467,-9.836629
2.497251,0.049382,-0.174334,-10.034906
2.530474,0.323678,-0.289409,-9.913696
2.563845,0.523601,0.634037,-9.126873
2.596790,-0.083950,0.081256,-9.624436
2.629662,0.366775,-0.183313,-10.147288
2.663839,0.471525,0.316944,-10.775489
2.696594,0.402839,0.271303,-10.765463
2.729624,0.687460,0.247061,-9.248383
2.763838,0.253794,1.086258,-9.305846
2.797167,0.694792,0.646009,-10.442534
2.830511,0.279084,0.082154,-9.419575
2.863833,0.055218,0.149194,-9.321858
2.897175,0.682073,-0.217581,-10.983792
2.930504,0.813459,-0.271303,-11.191197
2.963858,0.326222,0.501154,-7.654536
2.997252,0.906986,1.851831,-11.497666
3.030520,0.441147,0.596028,-11.874168
3.063837,0.439352,-0.532280,-9.011199
3.097231,0.708260,-0.351212,-8.547605
3.130476,0.761832,-0.861494,-9.247784
3.163840,0.829620,-0.487537,-9.122084
3.196809,0.794903,0.295844,-10.326860
3.230521,0.413912,-0.308414,-9.908308
3.263839,0.548142,-0.361837,-9.447259
3.296631,0.381590,-0.232246,-10.317881
3.330507,0.668156,0.330711,-9.445164
3.363876,1.277502,0.071230,-8.926950
3.397245,-0.217880,-0.062850,-10.506731
3.430473,-0.356300,-0.295844,-9.692673
3.463837,-0.435760,-0.340438,-9.406855
3.497167,-0.359442,-0.331459,-9.693122
3.530527,-0.376202,-0.351062,-9.680851
3.563844,-0.186904,-0.267861,-9.462672
3.596821,-0.084249,-0.249156,-9.815380
3.630506,-0.129142,-0.249156,-10.022037
3.662864,-0.174633,-0.257984,-9.355078
3.697148,-0.206956,-0.297191,-9.912798
3.730506,-0.089187,-0.335948,-10.258922
3.763806,0.054919,-0.332207,-9.774079
3.797441,0.325024,-0.327119,-9.560987
3.830478,0.557270,-0.722626,-10.746309
3.863842,0.504147,-0.538864,-10.369658
3.897245,0.521805,-0.319787,-9.465814
3.930475,0.688358,-0.439651,-10.295734
3.963644,0.328167,-0.474518,-9.307043
3.997167,0.360939,-0.437107,-9.417928
4.030279,0.472123,-0.341485,-10.595020
4.063835,0.385780,-0.155180,-10.254133
4.096659,0.304673,0.068088,-9.853389
4.130505,0.173885,-0.315896,-9.941828
4.163861,-0.157275,-0.323678,-9.749687
4.197246,-0.101009,-0.235688,-9.827501
4.230476,0.077964,-0.187503,-9.844261
4.263919,0.221023,-0.079161,-9.600493
4.297141,0.562209,-0.171192,-9.073301
4.330505,0.630296,-0.364081,-9.981334
4.363835,0.641370,-0.345675,-10.330601
4.397002,0.770811,0.021100,-10.148186
4.430516,0.960857,0.046240,-9.891997
4.463813,0.785027,0.132584,-9.597650
4.497241,0.560712,0.251101,-9.479282
4.530471,0.452520,0.172987,-9.075097
4.563929,0.183313,0.177327,-9.042624
4.597137,0.001197,0.121061,-9.040379
4.630458,0.022596,0.117320,-10.205350
4.663846,0.129142,0.588396,-10.791800
4.697395,0.239878,0.884839,-9.960833
4.730459,0.238681,0.779191,-9.342359
4.763842,0.104002,0.456261,-9.583733
4.797199,-0.063898,0.175082,-10.239768
4.830509,-0.099213,0.522404,-10.215376
4.863001,0.030976,0.522703,-9.775725
4.897186,0.267861,0.219526,-9.401468
4.930475,0.146500,-0.136774,-10.243359
4.963539,0.058211,-0.327119,-10.206996
4.997240,0.157125,-0.290756,-9.354330
5.032576,0.298089,-0.257536,-9.560688
5.063827,0.143059,-0.338343,-10.976011
5.097217,0.049083,-0.338043,-10.828613
5.130498,0.197529,-0.145603,-10.104939
5.163836,0.170743,-0.316944,-9.484819
5.197234,0.138569,-0.347022,-9.787547
5.230402,0.030527,-0.498311,-10.747207
5.263838,-0.002245,-0.451473,-10.249195
5.297252,0.158173,-0.386528,-9.265442
5.330298,0.126299,-0.655735,-9.049508
5.363840,-0.034867,-0.723973,-9.949760
5.397243,-0.118218,-0.438155,-9.807748
5.430425,-0.074522,-0.339241,-9.227583
5.463835,0.033370,-0.252747,-9.772882
5.497241,-0.073924,-0.060007,-9.996747
5.530490,-0.079909,0.061952,-9.359418
5.563834,0.017209,-0.130638,-9.364057
5.597072,-0.045043,-0.273847,-9.522529
5.630398,-0.034717,-0.317692,-9.286542
5.663799,0.005238,-0.336098,-9.634013
5.697203,-0.007632,-0.073774,-9.585828
5.730511,0.051028,0.093826,-9.607526
5.762973,0.034568,0.087840,-9.611118
5.797249,0.084099,0.090833,-9.951406
5.830474,0.012121,0.077066,-10.325513
5.862966,0.137372,0.049831,-9.585678
5.897233,0.152187,-0.252747,-10.227497
5.930316,0.059109,-0.322032,-10.189039
5.963842,0.064197,-0.271752,-9.443667
5.997243,0.162213,-0.337146,-10.152975
6.030243,0.048784,-0.325773,-10.998308
6.063580,0.074522,-0.164458,-10.315487
6.096870,0.121809,-0.086344,-8.779402
6.134678,-0.052824,-0.413314,-10.299625
6.163797,-0.101907,-0.485591,-10.582749
6.197154,0.060456,-0.347321,-9.236861
6.230504,0.109988,-0.328915,-9.755822
6.263812,0.052525,-0.324576,-10.011712
6.297017,-0.106695,-0.284621,-9.983878
6.330492,-0.062850,-0.241224,-10.289898
6.363848,0.021249,-0.147698,-9.108317
6.397035,0.052674,-0.226410,-9.090210
6.430535,0.019454,-0.339689,-10.161055
6.463865,0.007781,-0.245414,-9.122683
6.497243,0.089486,-0.125850,-9.144980
6.530472,0.062251,-0.029629,-10.360380
6.563839,0.107743,0.300333,-9.119092
6.597244,0.165355,0.220125,-8.946254
6.630113,0.025439,-0.100261,-9.218903
6.663838,-0.051328,-0.227457,-10.132623
6.697362,-0.003891,0.031425,-9.924620
6.730150,0.097567,0.216833,-9.669927
6.763845,0.114926,0.036812,-9.432145
6.797161,-0.016910,-0.280281,-9.699108
6.830305,-0.047886,-0.332656,-10.004828
6.863836,0.010774,-0.355701,-10.453607
6.897143,0.192441,-0.258733,-10.079949
6.930503,0.181218,-0.170443,-9.113405
6.963833,0.119265,-0.548441,-10.658618
6.996778,0.037560,-0.636731,-11.168152
7.030512,0.153234,-0.394758,-9.574754
7.062999,0.281029,-0.547544,-9.782758
7.097244,0.203963,-0.581213,-10.666549
7.130465,0.022147,-0.384433,-9.565776
7.163754,0.161764,-0.649151,-9.292977
7.197121,0.194386,-0.800141,-11.105003
7.230573,0.110436,-0.535273,-10.357836
7.262929,0.268310,-0.355252,-9.350290
7.297099,0.294497,-0.662170,-10.248596
7.329628,0.176878,-0.611740,-9.993006
7.363690,0.225811,-0.747167,-9.369295
7.397100,0.268759,-0.788618,-9.535249
7.430646,0.350015,-0.614584,-10.117360
7.464586,0.237334,-0.310509,-9.756720
7.497091,0.235388,-0.279533,-9.609920
7.530424,0.238830,-0.347770,-9.636706
7.563760,0.067190,-0.442345,-9.989116
7.597090,0.079011,-0.409273,-9.731131
7.629722,0.179871,-0.358694,-9.093203
7.663770,0.122408,-0.489781,-9.358221
7.697089,0.007183,-0.495318,-10.219117
7.730423,-0.016012,-0.400145,-10.352299
7.763741,0.069135,-0.157275,-9.427805
7.796549,0.121660,-0.265467,-9.981783
7.830502,-0.011523,-0.311108,-10.082642
7.863760,-0.033520,-0.339241,-9.776473
7.897076,0.020651,-0.375454,-9.764801
7.930401,0.085147,-0.362585,-9.917586
7.963740,0.134529,-0.299884,-9.454890
7.997100,0.152935,-0.212044,-9.801014
8.030413,0.129441,-0.313652,-9.689830
8.063749,0.127047,-0.326371,-10.182005
8.097132,0.148446,-0.081256,-10.412904
8.130444,0.188101,0.088140,-9.245689
8.163766,0.133631,0.008679,-9.213816
8.196562,0.038758,-0.276989,-9.568619
8.230479,-0.001347,-0.321732,-9.483173
8.263498,-0.030677,-0.304673,-9.797722
8.296419,0.168797,0.001496,-9.463270
8.330414,0.473171,0.025140,-9.040978
8.362994,0.253944,-0.267861,-10.029669
8.397085,0.124204,-0.332656,-10.124094
8.430423,0.024242,-0.330412,-9.336672
8.463763,0.187203,-0.327119,-9.708385
8.496636,0.317243,-0.317093,-10.243209
8.530465,0.657830,-0.335200,-10.184998
8.562900,0.797597,-0.344927,-9.991809
8.597249,0.683120,-0.361687,-9.802062
8.630476,0.418252,-0.397751,-9.484370
8.663050,0.321583,-0.388922,-9.496341
8.697169,0.328915,-0.367074,-10.118557
8.730114,0.609047,-0.344029,-9.429152
8.763792,0.712300,-0.334602,-9.189424
8.797409,0.761832,-0.338343,-10.187841
8.830217,0.575078,-0.376202,-9.739212
8.863768,0.586750,-0.343431,-9.504123
8.897181,0.610693,-0.335350,-9.662146
8.929566,0.605156,-0.339091,-10.245753
8.963201,0.650348,-0.540660,-9.966071
8.997087,0.617128,-0.624759,-10.678221
9.030208,0.574030,-0.529886,-10.110027
9.063797,0.518962,-0.352259,-9.013893
9.096502,0.487537,-0.327119,-9.236561
9.130478,0.536171,-0.564004,-10.108531
9.163832,0.560712,-0.611142,-10.133970
9.197220,0.669203,-0.347621,-9.786499
9.230450,0.681923,-0.195883,-8.611054
9.263873,0.606653,-0.282975,-9.386952
9.297026,0.240476,-0.384732,-11.406534
9.330490,0.289559,-0.351212,-8.254006
9.363796,1.348283,-0.358545,-8.324487
9.396446,1.267176,-0.189598,-10.310100
9.430437,0.000748,-0.394608,-10.749451
9.463795,0.018556,-0.262923,-9.201844
9.497227,0.176579,0.099064,-9.206782
9.530504,0.452371,0.186904,-9.679953
9.563785,0.450126,-0.140365,-10.779679
9.597255,0.423190,-0.212343,-10.947279
9.630489,0.331309,0.068387,-9.475541
9.662918,0.516268,0.102206,-9.127322
9.697243,0.589743,-0.146800,-9.942427
9.730477,0.483796,-0.281478,-9.840221
9.763836,0.491577,-0.280281,-9.394584
9.797249,0.529886,-0.136325,-9.499484
9.830454,0.538715,-0.019603,-9.585379
9.863870,0.448630,0.124204,-9.266639
9.897210,0.522852,0.050280,-9.074498
9.930472,0.630146,-0.074522,-9.158448
9.963361,0.648702,0.033819,-10.182754
9.997248,0.564902,-0.051926,-9.853240
10.030293,0.610244,0.182714,-9.994652
10.063838,0.604258,0.116871,-10.397192
10.097283,0.682970,-0.073924,-10.246950
10.130474,0.829022,0.198127,-10.097158
10.163831,0.707961,-0.073924,-10.058999
10.197254,0.762431,-0.123455,-9.728288
10.230728,0.847578,0.115375,-9.467311
10.263851,0.751657,0.144106,-9.387701
10.297239,-0.213690,-0.348219,-10.327907
10.330323,-0.393112,-0.470328,-10.325962
10.363789,-0.328766,-0.347920,-9.257212
10.396597,-0.098914,-0.318440,-9.971458
10.430463,0.089038,-0.306169,-10.155519
10.463768,0.187353,-0.241224,-9.043671
10.497110,-0.038009,-0.332357,-9.480629
10.529515,-0.089786,-0.463594,-10.391655
10.563809,-0.129890,-0.402540,-9.446361
10.597294,-0.100710,-0.368122,-9.737566
10.629767,-0.149493,-0.331908,-11.987148
10.663837,-0.236286,-0.082902,-10.399287
10.697255,-0.081555,0.169545,-7.864934
10.730510,-0.040553,-0.335499,-9.805504
10.763898,-0.001496,-0.432169,-10.605345
10.797109,-0.006584,-0.415858,-9.756122
10.830242,0.220274,-0.336846,-9.161440
10.864096,0.094125,-0.127346,-10.079500
10.896572,-0.014665,-0.020950,-11.042003
10.930493,-0.095771,0.109239,-9.612614
10.963825,-0.059708,0.052225,-8.429686
10.996499,0.001197,-0.212643,-9.285046
11.030509,-0.022446,-0.336397,-10.711592
11.064103,0.169695,-0.062401,-9.600942
11.097360,0.298687,0.159070,-9.434988
11.130473,0.500705,0.156826,-10.512567
11.163839,0.336547,0.018705,-9.488111
11.197247,0.412117,-0.305571,-9.925368
11.230157,0.384433,-0.340438,-10.129481
11.263800,0.193189,-0.318739,-9.089163
11.296176,0.323229,-0.226410,-9.601989
11.330495,0.322929,-0.127645,-9.827352
11.363747,0.080508,0.066591,-9.907560
11.397110,0.045940,0.245863,-9.598697
11.430416,0.057613,0.263222,-9.248533
11.462968,0.043247,0.112681,-9.802810
11.496415,-0.021549,0.023644,-10.136514
11.530431,0.016910,0.127047,-9.616355
11.563971,0.101308,0.124802,-10.140554
11.596682,0.008530,-0.007482,-10.374446
11.630495,0.054919,-0.099213,-9.510857
11.671086,0.181966,-0.329514,-10.219416
11.696549,0.177477,-0.380243,-10.183352
11.730508,0.108192,-0.344029,-9.663642
11.763770,0.164308,-0.315896,-9.419724
11.796362,0.153983,-0.328616,-9.254818
11.830506,0.082603,-0.269058,-8.980223
11.863869,0.111634,-0.343879,-9.956793
11.897259,0.025439,-0.223267,-9.673668
11.929968,0.026487,0.040553,-9.366900
11.963841,0.145603,0.082603,-9.461774
11.996333,0.130489,-0.089337,-9.371838
12.030535,0.020501,-0.335948,-9.955296
12.063852,0.109090,-0.336248,-10.250093
12.096497,0.153534,-0.327119,-10.433106
12.130307,0.124653,0.085745,-9.463420
12.163843,0.103553,0.020501,-9.608274
12.197079,0.024242,-0.206657,-10.196072
12.230527,-0.063149,-0.074971,-9.214564
12.262863,0.080508,-0.093228,-9.637455
12.296630,0.020800,-0.213840,-10.870064
12.330503,-0.096071,0.156826,-8.789727
12.363381,0.019304,0.145752,-10.286755
12.397248,0.044294,0.007781,-10.390757
12.430475,-0.134978,0.059109,-8.727177
12.463799,0.084249,-0.167750,-10.474857
12.497279,0.032024,0.079161,-9.553954
12.530485,-0.019304,0.414361,-9.477935
12.563759,0.020202,0.357647,-9.787696
12.596420,-0.006135,0.187203,-9.321259
12.630445,0.069734,0.093976,-9.681749
12.662941,0.049532,0.032473,-10.060795
12.696913,-0.006884,0.081555,-9.208129
12.729854,-0.004938,0.057762,-9.858178
12.762994,-0.019304,-0.002993,-10.139806
12.797185,-0.032173,0.027385,-9.935244
12.830462,0.039206,0.181966,-9.421969
12.863795,0.089486,-0.102805,-10.041191
12.896739,-0.030378,-0.224913,-10.029370
12.930496,0.013618,-0.246612,-10.143697
12.963023,0.083052,-0.099064,-9.623239
12.996650,0.108042,-0.159070,-10.312644
13.030476,-0.099363,-0.288362,-9.973553
13.063790,-0.039955,-0.225512,-9.854138
13.096248,0.028283,-0.258583,-10.286755
13.130503,0.043097,-0.199624,-9.793682
13.163812,0.041451,-0.176579,-9.603186
13.196580,0.133930,-0.323229,-10.066780
13.230520,0.001646,-0.327868,-9.784703
13.263425,-0.016161,-0.298538,-9.435736
13.296821,0.060306,-0.303326,-9.206782
13.330508,-0.016012,-0.281329,-9.114602
13.363342,-0.063598,-0.335350,-9.350140
13.397179,-0.093377,-0.313652,-10.300223
13.430468,-0.152037,-0.003442,-10.511968
13.463841,-0.050280,0.586301,-9.225188
13.496282,0.146201,0.460601,-8.453629
13.530475,-0.134080,-0.249904,-10.556711
13.563842,-0.109539,-0.328017,-12.034884
13.596466,-0.129441,0.015114,-8.854822
13.630460,0.190795,0.394160,-10.419339
13.663527,0.236735,0.299286,-10.423828
13.696503,-0.020202,0.368122,-7.847725
13.730465,0.034418,0.196182,-10.676875
13.763354,0.077216,0.015862,-10.886674
13.797165,-0.034717,0.466886,-9.651671
13.830300,0.214738,0.706015,-10.287204
13.863806,0.026786,0.399696,-9.833786
13.897217,-0.061653,0.369169,-8.954484
13.929782,0.021549,0.205909,-8.717749
13.963792,0.003591,-0.064346,-10.245304
13.997173,-0.101608,-0.146500,-10.712789
14.030159,-0.071978,0.604707,-9.536146
14.063842,0.015264,0.744174,-9.255566
14.097115,-0.184061,0.237034,-9.405508
14.129992,-0.281628,0.025140,-9.562334
14.163838,-0.331609,-0.155180,-8.979774
14.197214,-0.173137,-0.081406,-11.192395
14.230550,-0.125102,0.079011,-10.698274
14.263474,0.056864,0.585104,-8.513337
14.296503,0.082603,0.370366,-11.136428
14.330503,-0.062850,0.102805,-10.286755
14.363152,-0.073924,0.140215,-8.291716
14.397172,-0.030527,-0.105798,-9.357622
14.430177,-0.026038,-0.198875,-10.777584
14.463845,-0.140515,0.023644,-10.889817
14.497198,-0.076916,0.792958,-9.193165
14.529851,0.101608,0.900252,-10.045980
14.563885,-0.033221,0.161914,-10.218967
14.596763,-0.136325,-0.133482,-8.929793
14.630520,0.116273,-0.250502,-10.227347
14.663851,0.228804,-0.161465,-10.961495
14.696724,0.168648,0.444140,-9.639699
14.730561,0.178075,0.726217,-9.660500
14.763745,0.082453,0.431870,-9.226386
14.797244,-0.037111,0.269357,-8.777457
14.830484,0.107893,0.039057,-9.741457
14.862992,0.179123,0.047138,-10.492365
14.896916,0.063898,0.222220,-10.202207
14.932727,0.152187,0.770362,-10.158362
14.963769,0.138869,0.695241,-9.976995
14.996458,0.022297,0.295844,-9.040379
15.030504,0.066890,0.091881,-10.069773
15.063896,0.069883,-0.047287,-10.548182
15.096448,0.102954,0.132733,-9.594806
15.130505,0.211445,0.657980,-9.265891
15.163687,0.239129,0.566399,-9.870748
15.196578,-0.011074,0.190047,-10.137561
15.230507,-0.047287,0.257835,-8.815915
15.263496,0.100859,0.211146,-9.636407
15.296573,-0.045491,-0.203215,-9.909805
15.330505,-0.113280,-0.152785,-9.302404
15.362912,-0.032323,0.114178,-9.471201
15.396449,-0.011523,0.010774,-10.363672
15.430463,-0.039356,0.024841,-9.375729
15.463207,-0.000299,0.055966,-9.700903
15.497096,0.044893,-0.126299,-10.422182
15.529840,-0.020950,-0.295246,-10.061244
15.563277,-0.061354,-0.264269,-9.562633
15.597145,0.021549,-0.364231,-9.689231
15.630456,-0.008829,-0.427231,-9.964275
15.663797,-0.043097,-0.524947,-9.953650
15.697239,0.022446,-0.433665,-9.881223
15.730114,0.074672,-0.335948,-9.814931
15.763300,0.080957,-0.329663,-9.573408
15.797167,0.031425,-0.355103,-9.780513
15.829622,-0.036513,-0.338642,-10.022037
15.863808,-0.104151,-0.286566,-9.550961
15.897171,-0.116572,-0.259631,-9.542731
15.930087,-0.106396,-0.233144,-9.749687
15.963098,-0.129890,-0.203814,-9.782159
15.997166,-0.105349,-0.141413,-9.961581
16.041319,-0.039655,0.087242,-9.194811
16.063892,-0.020501,0.019454,-9.169072
16.096572,-0.118517,-0.193638,-10.428767
16.130460,-0.147249,-0.045342,-10.569431
16.163843,-0.069584,0.300034,-9.543030
16.196497,0.024093,0.312305,-9.232072
16.230607,-0.021100,0.127496,-9.724397
16.263384,-0.170892,0.164009,-10.333294
16.297173,-0.184510,0.299735,-9.745497
16.330504,-0.116422,0.552482,-9.371090
16.363380,-0.094125,0.481252,-10.258623
16.397328,-0.138270,0.512677,-9.611118
16.430412,-0.055218,0.559515,-9.101733
16.462917,0.022446,0.376202,-9.759114
16.497244,0.100560,0.285070,-10.157314
16.530429,0.110586,0.696588,-9.915042
16.563840,0.191393,1.052588,-9.783806
16.596576,0.208004,0.979114,-9.175208
16.630408,0.173436,0.780538,-9.567123
16.663838,0.005686,0.368122,-9.804756
16.696796,-0.081705,0.269657,-9.827501
16.730565,-0.136474,0.384582,-9.876135
16.763906,-0.152337,0.292103,-9.712276
16.797213,-0.294946,0.186605,-9.876285
16.830508,-0.327119,0.167002,-9.892297
16.863211,-0.305122,0.233892,-9.917287
16.897222,-0.256638,0.124353,-9.522679
16.930440,-0.243619,-0.063598,-9.458182
16.963796,-0.237184,-0.193189,-9.645386
16.997216,-0.213241,-0.315896,-9.922525
17.030067,-0.119565,-0.285219,-9.694020
17.063793,-0.110137,-0.289409,-9.409399
17.097237,-0.079610,-0.369020,-9.342209
17.132675,-0.088888,-0.644811,-10.445826
17.163773,-0.071529,-0.707362,-10.551773
17.197130,-0.001796,-0.588097,-9.718561
17.230522,0.134978,-0.752704,-9.893793
17.263835,0.054769,-0.887981,-10.025180
17.297320,0.040104,-0.893817,-10.171830
17.330506,0.041451,-0.682821,-9.955895
17.363811,0.137971,-0.434563,-9.607825
17.396586,0.122408,-0.476762,-10.057502
17.430508,-0.021399,-0.341336,-9.965322
17.463777,-0.038907,-0.336697,-9.523427
17.497241,0.047736,-0.343431,-9.482275
17.530500,0.018256,-0.373658,-10.090723
17.563348,-0.068985,-0.325623,-9.789342
17.597286,-0.069734,-0.331459,-9.654813
17.630468,-0.071380,-0.223866,-10.064835
17.663840,-0.065993,-0.176728,-9.753877
17.697255,-0.057164,-0.082154,-9.773031
17.730490,-0.089038,-0.141413,-9.900677
17.763851,-0.093826,-0.077216,-9.928660
17.797178,-0.054620,-0.039206,-10.172578
17.830028,-0.114626,0.204263,-9.575951
17.863801,-0.027235,0.151289,-9.741756
17.897173,-0.032622,0.024392,-9.930456
17.930354,-0.076318,0.153983,-10.195922
17.963839,0.026786,0.471974,-9.688633
17.997222,0.050130,0.581812,-9.181343
18.030204,0.149793,0.570289,-8.946553
18.063802,0.112980,0.252597,-9.742055
18.096657,-0.039955,0.312155,-9.640298
18.130476,-0.047437,0.482150,-9.521631
18.163792,0.134529,0.769763,-9.411344
18.196413,0.074223,0.738189,-8.906150
18.230476,-0.010026,0.651246,-9.208877
18.263852,-0.046389,0.422292,-10.356339
18.297213,-0.139767,0.629398,-9.488261
18.330537,-0.060456,0.736992,-9.639999
18.363840,-0.014366,0.453119,-10.460341
18.397238,-0.199025,0.151588,-9.241051
18.430223,-0.097268,-0.046090,-9.639849
18.463835,-0.017808,-0.268759,-10.703062
18.497249,-0.101458,-0.329364,-9.927612
18.530470,0.024691,0.013468,-9.223393
18.563837,0.152187,-0.119565,-9.700604
18.596573,-0.079161,-0.338941,-9.691775
18.629720,-0.108940,-0.418402,-9.962629
18.663926,-0.117769,-0.436060,-10.382078
18.696536,-0.077814,-0.361837,-10.175421
18.730509,-0.060905,-0.342233,-9.441871
18.763840,-0.079161,-0.715892,-9.784254
18.797159,-0.136774,-0.934819,-10.505085
18.830603,-0.199624,-1.084163,-10.258473
18.863913,-0.145902,-0.927936,-9.666485
18.896593,-0.079610,-0.921352,-9.553655
18.930504,-0.098016,-1.013831,-9.847254
18.963756,-0.131087,-0.951879,-9.955147
18.996621,-0.115075,-0.851917,-9.686388
19.030505,-0.112232,-0.639873,-9.737117
19.063752,-0.164009,-0.662918,-10.000488
19.097239,-0.188101,-0.590341,-9.680702
19.130470,-0.146800,-0.461349,-9.815380
19.163183,-0.137821,-0.400893,-9.503824
19.197243,-0.140066,-0.437107,-9.241499
19.230563,-0.132883,-0.532879,-10.066331
19.263796,-0.091581,-0.328616,-10.078901
19.297239,-0.066441,-0.322929,-9.685789
19.330666,0.018556,-0.293749,-9.780064
19.363772,0.007033,-0.284022,-9.255117
19.397175,-0.019903,-0.315747,-8.837613
19.429873,0.057014,-0.405383,-9.692374
19.463230,-0.033221,-0.363333,-10.650537
19.497169,-0.029629,-0.269357,-10.079500
19.530793,0.103703,0.074971,-8.934881
19.562994,0.128244,-0.152187,-10.006325
19.597162,-0.123904,-0.235688,-9.487961
19.630454,-0.115973,-0.289559,-9.471950
19.662876,-0.080807,-0.190047,-10.283463
19.697181,-0.183313,0.057613,-9.701352
19.730502,-0.180320,0.173436,-9.670825
19.763744,-0.182564,0.247210,-9.399073
19.797111,-0.182415,0.150990,-9.424064
19.829547,-0.196032,0.025888,-9.630870
19.863750,-0.166553,-0.073624,-9.692074
19.897095,-0.193638,-0.006734,-9.987470
19.929695,-0.257087,0.138120,-9.434090
19.963123,-0.263222,0.145303,-9.149469
19.996813,-0.248258,-0.084848,-10.073664
20.030415,-0.168797,-0.324426,-10.178414
20.063764,-0.153234,-0.252897,-10.121101
20.097114,-0.098615,-0.196631,-10.483835
20.130412,-0.221920,-0.245863,-10.249345
20.163024,-0.264120,-0.311706,-9.701951
20.197123,-0.181367,-0.396255,-10.297530
20.230430,-0.203365,-0.458057,-10.709048
20.263797,-0.123755,-0.335350,-9.347596
20.297173,-0.001945,-0.314699,-8.816065
20.329739,-0.017209,-0.364979,-9.983878
20.363515,-0.147099,-0.397302,-9.541983
20.397224,-0.080508,-0.329364,-8.724483
20.430675,0.036962,-0.498760,-10.365468
20.463806,-0.180769,-0.339241,-9.307791
20.496315,-0.183911,-0.352559,-8.978876
20.530517,-0.067489,-0.457309,-10.574968
20.563836,-0.171042,-0.383086,-9.631319
20.596277,-0.132883,-0.428727,-9.190920
20.630508,-0.065394,-0.621318,-10.806615
20.664093,-0.054620,-0.385031,-10.046728
20.697177,0.022746,-0.332207,-8.238293
20.730500,0.063748,-0.720680,-9.867456
20.763837,-0.198875,-0.561610,-10.213131
20.796890,-0.218030,-0.372910,-9.080184
20.830521,-0.045641,-0.347471,-9.661697
20.863834,-0.189598,-0.334452,-10.156566
20.896489,-0.242272,-0.334452,-9.694768
20.930505,-0.100261,-0.339689,-9.883617
20.963813,0.019454,-0.348518,-9.830793
20.996623,0.029031,-0.394908,-10.071419
21.030506,-0.016760,-0.409273,-10.428916
21.063877,-0.031425,-0.331309,-10.341525
21.096736,-0.018107,-0.212493,-9.549614
21.130508,-0.045641,-0.311706,-9.292079
21.164122,-0.060755,-0.333853,-9.310186
21.197248,-0.093676,-0.351511,-9.854736
21.230596,-0.083650,-0.320386,-9.295820
21.264202,-0.026936,-0.115674,-9.483322
21.297257,-0.167600,-0.133930,-9.833337
21.330503,-0.235837,-0.095472,-9.373933
21.363839,-0.209949,-0.036513,-8.876071
21.397223,-0.180469,-0.338492,-11.096922
21.430519,-0.184659,-0.093527,-10.081146
21.463812,-0.048185,0.033520,-8.974836
21.496589,0.119565,-0.174783,-10.198765
21.530505,-0.105049,-0.275792,-10.417992
21.570512,-0.063299,-0.312006,-9.396530
21.596459,-0.006135,-0.235837,-10.179013
21.630508,-0.019304,-0.299585,-10.551474
21.663833,-0.146650,-0.165954,-8.344540
21.696951,-0.055218,-0.205759,-9.961581
21.730505,-0.019304,-0.293151,-10.952068
21.763788,-0.123455,-0.018406,-8.834171
21.796420,0.033520,0.149643,-8.171103
21.830503,-0.014216,-0.304224,-10.668195
21.863949,-0.227008,-0.153683,-9.077940
21.897234,-0.145453,-0.324725,-9.074049
21.930515,-0.142460,-0.217431,-10.983343
21.962970,-0.178524,-0.228654,-9.636407
21.996158,-0.242571,-0.280431,-9.944372
22.030416,-0.224015,-0.365877,-10.629887
22.063741,-0.207854,-0.366176,-9.476589
22.096213,-0.107294,-0.454316,-10.563595
22.130123,-0.104750,-0.468532,-10.439840
22.163764,-0.105648,-0.350015,-9.460876
22.197105,0.075270,-0.328915,-9.603935
22.229695,0.058361,-0.351212,-9.702100
22.263790,-0.013917,-0.363034,-9.661098
22.297210,0.002843,-0.351811,-9.113704
22.330511,0.019005,-0.391765,-9.178949
22.363750,-0.144405,-0.387575,-10.091771
22.397100,-0.115824,-0.346723,-9.543479
22.430411,-0.068536,-0.337744,-9.569966
22.463740,-0.085596,-0.349117,-9.947814
22.497126,-0.203664,-0.370666,-9.764651
22.530465,-0.146949,-0.355701,-10.064985
22.562931,-0.154432,-0.348668,-9.775425
22.597166,-0.183313,-0.337894,-10.103592
22.629803,-0.246761,-0.318141,-9.929857
22.663767,-0.274744,-0.312454,-9.599894
22.696317,-0.209350,-0.312754,-9.428703
22.730481,-0.151439,-0.338492,-10.166143
22.763881,-0.129142,-0.333255,-10.172877
22.797215,-0.141413,-0.233742,-10.006474
22.830465,-0.120762,-0.101009,-8.958225
22.863843,-0.281927,-0.308115,-8.667918
22.897242,-0.339989,-0.482748,-10.497453
22.929937,-0.386977,-0.324127,-10.044184
22.963833,-0.365578,-0.131387,-8.944309
22.997453,-0.312305,0.156227,-8.682284
23.030513,-0.335051,-0.230749,-10.187243
23.063982,-0.367822,-0.208902,-9.747742
23.097169,-0.183013,-0.178973,-9.409399
23.129859,-0.057613,-0.203963,-10.136963
23.163720,-0.065693,-0.218179,-10.068426
23.197246,-0.130788,-0.129142,-9.619946
23.230491,-0.121809,-0.153234,-9.991510
23.263791,-0.165355,-0.298089,-10.172877
23.297251,-0.224315,-0.302578,-10.054360
23.330435,-0.186305,-0.324426,-10.420686
23.363852,-0.199474,-0.301531,-9.970560
23.397242,-0.189598,-0.297939,-10.052864
23.430651,-0.228654,-0.347172,-9.599894
23.463799,-0.228804,-0.337894,-9.355827
23.497242,-0.259032,-0.336397,-9.616205
23.530291,-0.222519,-0.328167,-9.595555
23.563791,-0.022746,-0.244816,-10.014705
23.597166,-0.053722,-0.012271,-9.287889
23.629672,-0.067339,0.044145,-9.254219
23.663064,-0.188400,-0.164757,-9.886311
23.696590,-0.276091,-0.219377,-8.999826
23.732608,-0.259032,-0.231198,-9.368546
23.763771,-0.195583,-0.320535,-10.591877
23.797211,-0.123455,-0.008979,-9.547669
23.830456,-0.024990,0.061054,-10.149533
23.863787,-0.076168,-0.085745,-9.849648
23.897092,-0.033221,-0.212493,-9.950208
23.930412,-0.056565,-0.338941,-10.490569
23.963835,-0.085296,-0.251999,-9.578944
23.996549,-0.044444,-0.115973,-9.401767
24.030406,-0.006884,-0.229552,-9.747442
24.063746,-0.054919,-0.331758,-10.053761
24.097094,0.010026,-0.219526,-9.650025
24.130474,0.062700,-0.171341,-9.570415
24.163183,0.023943,-0.325324,-9.471351
24.197117,-0.070931,-0.362286,-9.702998
24.230436,-0.027983,-0.411817,-9.759264
24.263046,-0.032173,-0.342832,-9.867905
24.297215,-0.046838,-0.343131,-9.937638
24.330549,-0.143957,-0.340887,-9.464019
24.363040,-0.186754,-0.418551,-10.241863
24.397243,-0.224165,-0.456112,-10.735984
24.430816,-0.277139,-0.336098,-9.548716
24.463794,-0.155629,-0.356449,-9.435437
24.497180,-0.166253,-0.484993,-10.149234
24.530498,-0.306319,-0.499957,-10.083690
24.563794,-0.215486,-0.344927,-9.540486
24.597178,-0.084548,-0.338642,-9.603186
24.629749,-0.118816,-0.355103,-9.386653
24.663798,-0.142161,-0.361837,-9.385755
24.697242,-0.155180,-0.467485,-10.085785
24.730482,-0.145603,-0.332058,-10.182604
24.762997,-0.124054,-0.125550,-9.124179
24.797243,-0.123306,-0.239279,-9.495444
24.831831,-0.211745,-0.334452,-10.161654
24.863800,-0.234042,-0.310060,-10.158362
24.897182,-0.175830,-0.234790,-10.580205
24.930469,-0.105349,0.038458,-9.701801
24.963002,-0.115674,0.030527,-9.518339
24.997246,-0.201719,-0.228056,-10.044184
25.031185,-0.291953,-0.246163,-9.063275
25.062889,-0.303925,-0.172688,-9.229079
25.097249,-0.254393,-0.296892,-9.966370
25.130474,-0.333404,-0.199923,-9.360017
25.163176,-0.261726,-0.072726,-9.256464
25.196572,-0.225213,-0.052375,-10.348857
25.230472,-0.229552,0.055069,-9.782459
25.263225,-0.146351,0.032024,-9.177602
25.297254,-0.117470,-0.194237,-10.243359
25.329774,-0.133781,-0.249604,-9.943026
25.363028,-0.057463,-0.230600,-9.909206
25.397167,-0.070033,-0.221920,-9.753428
25.430403,-0.128693,-0.332507,-10.075909
25.463848,-0.193788,-0.351362,-9.952004
25.496614,-0.145453,-0.333704,-9.542731
25.530505,-0.109239,-0.378597,-10.018446
25.563170,-0.144405,-0.395506,-10.033260
25.596999,-0.172538,-0.328766,-9.772882
25.630506,-0.130189,-0.253495,-9.801763
25.663641,-0.106097,-0.273398,-9.744449
25.697255,-0.084548,-0.340138,-9.865361
25.730369,-0.071230,-0.367074,-9.919681
25.763792,-0.070931,-0.334452,-9.339965
25.797153,-0.020651,-0.338941,-9.220400
25.830705,-0.017209,-0.421095,-9.698659
25.863799,-0.072128,-0.329663,-9.800117
25.897246,-0.006884,-0.199773,-9.268136
25.934322,-0.045342,-0.332806,-9.867606
25.963485,-0.172538,-0.323827,-9.605880
25.997236,-0.229552,-0.250502,-9.570115
26.030499,-0.201569,-0.277438,-10.412904
26.063836,-0.258583,-0.126897,-10.401532
26.097177,-0.177626,-0.013169,-10.063638
26.130568,-0.168199,-0.061653,-10.193977
26.163852,-0.199923,-0.202467,-9.705842
26.197319,-0.138420,-0.339091,-9.978940
26.230567,-0.065993,-0.350314,-10.495358
26.263652,-0.127047,-0.258882,-9.441722
26.297173,-0.100859,-0.130638,-9.406705
26.330504,-0.186305,-0.187652,-9.797124
26.363902,-0.257984,-0.289260,-8.925005
26.397369,-0.231198,-0.329065,-9.374682
26.430200,-0.202916,-0.347621,-10.274036
26.463840,-0.173586,-0.171341,-9.425111
26.497248,-0.072726,-0.061952,-9.411045
26.530485,-0.102056,-0.207854,-10.104191
26.563836,-0.169097,-0.303476,-9.547220
26.597169,-0.111185,-0.325174,-10.193079
26.630225,-0.117170,-0.335799,-10.606991
26.663841,-0.142610,-0.132584,-9.760461
26.696974,-0.098615,0.041601,-9.140790
26.730508,-0.152187,-0.185408,-9.589868
26.763829,-0.365278,-0.350314,-9.576999
26.797243,-0.360939,-0.309462,-9.622041
26.830471,-0.251699,-0.067339,-10.166143
26.863797,-0.201569,0.003442,-9.474045
26.896477,-0.168348,-0.004489,-9.130165
26.930037,-0.170743,-0.185707,-9.960085
26.963845,-0.231348,-0.231198,-10.046579
27.003037,-0.102805,-0.003891,-9.343406
27.030467,-0.036214,-0.003292,-9.222944
27.063840,-0.184809,-0.198427,-9.878829
27.097131,-0.241973,-0.106845,-9.216808
27.130508,-0.189747,0.032173,-9.331884
27.163292,-0.164907,-0.129142,-9.806851
27.197171,-0.171341,-0.028881,-9.589270
27.229750,-0.103104,-0.065993,-9.828998
27.263120,-0.139767,-0.227906,-10.503289
27.297242,-0.117320,-0.062251,-9.531507
27.330490,-0.041002,-0.065544,-9.989864
27.363842,-0.079161,-0.016311,-10.200860
27.397244,-0.061054,-0.030378,-9.789492
27.430486,-0.043845,-0.219676,-10.404076
27.463218,-0.139767,-0.182864,-10.430562
27.496844,-0.177327,-0.133631,-9.607526
27.530467,-0.131686,-0.121510,-9.759863
27.563842,-0.181068,-0.252298,-10.057054
27.597159,-0.279234,-0.307965,-9.156053
27.630502,-0.140964,-0.254842,-9.473895
27.663860,-0.115524,-0.297640,-9.723050
27.696518,-0.039805,-0.217282,-9.049657
27.730507,0.152037,-0.106695,-10.196670
27.763181,0.041451,-0.020202,-9.415235
27.796393,0.007333,0.049681,-9.152462
27.830503,-0.020202,-0.163260,-9.878679
27.863804,-0.119864,-0.372910,-10.645899
27.897243,-0.093078,-0.411069,-10.809159
27.930490,-0.016012,-0.303476,-9.904867
27.963791,0.026038,-0.313652,-10.461089
27.997249,-0.105947,-0.343281,-10.592925
28.030434,-0.247061,-0.336397,-9.516244
28.063792,-0.150092,-0.558168,-10.143846
28.096556,-0.223567,-0.500855,-10.155219
28.131703,-0.168049,-0.337594,-9.329340
28.163771,-0.022446,-0.312006,-8.998479
28.196389,-0.104002,-0.374407,-9.704345
28.230507,-0.156377,-0.339540,-9.794281
28.263821,-0.128394,-0.212493,-9.620545
28.297246,-0.096220,-0.064795,-9.333829
28.330805,-0.148745,-0.123455,-9.130913
28.363305,-0.308414,-0.215486,-9.484669
28.396738,-0.273398,-0.190047,-9.408950
28.430499,-0.164907,-0.143208,-9.711229
28.463173,-0.122558,-0.175830,-9.982980
28.497242,-0.112232,-0.155479,-9.911451
28.530352,-0.050430,-0.016760,-9.603785
28.563792,-0.076767,-0.098166,-9.846506
28.597253,-0.134828,-0.129441,-9.598248
28.630705,-0.120163,-0.176878,-9.637155
28.663797,-0.008081,-0.193937,-10.415598
28.696985,0.018256,-0.079311,-10.308454
28.730043,-0.017957,0.070332,-9.866408
28.763842,0.047886,0.096220,-9.961132
28.796833,-0.054021,-0.167301,-10.138759
28.830705,-0.074373,-0.313352,-9.916688
28.863808,-0.034418,-0.312754,-9.399373
28.896458,0.067339,-0.355851,-9.699856
28.930501,-0.191693,-0.314400,-9.765100
28.963472,-0.205759,-0.202317,-8.797808
28.996728,-0.208902,-0.004639,-9.348494
29.029860,-0.292552,-0.200522,-10.104191
29.063397,-0.352259,-0.214139,-9.527916
29.097245,-0.292103,0.027834,-9.568619
29.130554,-0.218030,-0.269208,-9.989565
29.163824,-0.296892,-0.319937,-10.322370
29.197248,-0.200073,-0.337594,-9.745347
29.230085,-0.046389,-0.340438,-10.432059
29.263771,0.109688,-0.341934,-10.473659
29.296541,0.137372,-0.337594,-10.198316
29.330056,0.290457,-0.360640,-9.716317
29.363802,0.095771,-0.479007,-9.661098
29.397145,-0.019454,-0.536769,-9.849050
29.429928,-0.178075,-0.362136,-9.947665
29.464302,-0.265167,-0.213989,-9.610818
29.497190,-0.343431,-0.183163,-9.918783
29.530510,-0.486789,-0.149194,-9.610220
29.563835,-0.520757,-0.143957,-9.481227
29.596663,-0.493672,-0.307067,-9.767943
29.630514,-0.493822,-0.327568,-9.884066
29.663908,-0.461948,-0.314549,-9.871496
29.697135,-0.363782,-0.189448,-9.346399
29.730598,-0.344328,-0.157724,-9.457285
29.763572,-0.326671,-0.282975,-9.763604
29.797206,-0.281628,-0.262923,-9.377675
29.830873,-0.156377,-0.245564,-9.369295
29.863474,-0.200970,-0.277139,-9.703298
29.897145,-0.297490,-0.314101,-10.157165
29.929862,-0.310509,-0.241973,-9.532705
29.963611,-0.341635,-0.304523,-9.434689
29.997249,-0.372461,-0.356599,-9.817475
30.030447,-0.459853,-0.465689,-10.336437
30.063794,-0.479157,-0.405981,-10.352748
30.097172,-0.375604,-0.292702,-9.645535
30.130359,-0.351960,-0.316495,-10.328207
30.163834,-0.364231,-0.324276,-9.876734
30.197521,-0.316944,-0.339241,-9.840670
30.230069,-0.260977,-0.360490,-10.302019
30.263472,-0.204263,-0.326222,-9.860273
30.296612,-0.125102,-0.307666,-9.878679
30.331192,-0.146800,-0.315747,-9.388748
30.364024,-0.154880,-0.330112,-9.216509
30.397109,-0.194536,-0.370815,-9.500232
30.430470,-0.264868,-0.328017,-9.612315
30.463842,-0.274744,-0.221023,-9.212768
30.497180,-0.278037,-0.091432,-9.209626
30.530503,-0.358395,-0.236137,-9.970410
30.563842,-0.369618,-0.213989,-9.857131
30.597188,-0.357946,-0.006734,-9.440974
30.630415,-0.347321,-0.054021,-10.128882
30.662862,-0.372312,-0.122558,-10.366216
30.697108,-0.319637,-0.088888,-10.140255
30.730420,-0.269956,-0.133033,-10.406320
30.763221,-0.269357,-0.084548,-10.143697
30.796204,-0.252448,-0.094574,-9.871646
30.830452,-0.227308,-0.138869,-10.095362
30.863839,-0.275493,-0.185857,-9.593310
30.897185,-0.300034,-0.222519,-9.588821
30.930480,-0.324426,-0.166104,-9.714222
30.963934,-0.306918,-0.108940,-8.905401
30.997122,-0.310359,-0.091881,-8.831328
31.030506,-0.305571,-0.315747,-9.692523
31.063836,-0.348219,-0.332656,-9.583434
31.097003,-0.326222,-0.289110,-9.620695
31.130500,-0.315298,-0.301680,-9.685939
31.163842,-0.358694,-0.366775,-9.851743
31.197048,-0.352409,-0.592586,-10.236326
31.230509,-0.321882,-0.619073,-9.996149
31.262979,-0.305721,-0.541408,-9.994054
31.297243,-0.277139,-0.617576,-10.344817
31.330469,-0.372461,-0.575976,-10.564044
31.362970,-0.342233,-0.400145,-9.773330
31.397238,-0.212194,-0.358694,-9.647780
31.432714,-0.090235,-0.371713,-10.162103
31.463800,0.355851,-0.410022,-9.873741
31.496376,0.467485,-0.593933,-9.732628
31.530478,0.283424,-1.010090,-9.719160
31.563929,0.242122,-1.190859,-9.404910
31.596544,0.330861,-1.157787,-9.457135
31.630503,0.311407,-0.962803,-9.650773
31.663912,0.246612,-0.433067,-9.641794
31.697206,0.421694,0.143657,-9.517740
31.729722,0.403587,0.495917,-9.911152
31.763842,0.395656,0.867779,-10.829959
31.797196,0.258134,0.781735,-9.961881
31.830661,0.472423,0.611142,-10.496405
31.863846,0.181068,0.569242,-10.524089
31.896807,-0.147398,0.605455,-9.897235
31.929836,-0.084548,0.334452,-9.889304
31.963888,-0.145303,0.286417,-9.856831
31.997244,-0.152486,0.514622,-9.480629
32.029520,-0.218778,0.811364,-9.348793
32.063838,-0.247659,0.870024,-9.255716
32.096709,-0.327718,0.822288,-8.730618
32.130004,-0.441596,0.938411,-8.640533
32.163769,-0.651695,0.929881,-8.515731
32.197086,-0.693745,0.949634,-8.661783
32.229545,-0.553080,1.054534,-9.239404
32.263758,-0.390269,0.945743,-10.163899
32.297103,-0.394459,0.775450,-10.310998
32.329764,-0.374407,0.258583,-9.995999
32.363759,-0.342682,-0.301531,-10.715482
32.397128,-0.635384,-0.731155,-10.256378
32.430451,-1.296207,-0.842340,-10.369957
32.463939,-1.383898,-0.815853,-10.348708
32.496713,-1.095087,-1.176493,-10.420686
32.530454,-0.636880,-3.102398,-10.018745
32.563938,-0.734597,-3.547735,-9.177752
32.597176,-0.829022,-3.050023,-7.878252
32.630482,-1.061417,-1.412031,-8.671958
32.663800,-0.757642,-0.345376,-9.731131
32.697173,-0.712749,-0.693745,-9.533453
32.729769,-0.509385,-0.885886,-9.685939
32.763844,-0.379046,-0.765424,-9.577598
32.797269,-0.342383,-1.046453,-9.757468
32.830508,-0.264718,-1.370580,-10.783271
32.863894,-0.327269,-1.343794,-11.042752
32.897081,-0.368571,-1.348433,-10.705307
32.930473,-0.408525,-1.479221,-10.302618
32.963728,-0.495318,-1.081919,-9.845907
32.997136,-0.531232,-1.114391,-9.425411
33.030504,-0.553978,-1.346487,-9.596303
33.063853,-0.348967,-0.883193,-10.212084
33.096458,-0.294797,-0.655885,-9.316171
33.130501,-0.318889,-0.611890,-9.072253
33.163851,-0.268011,-0.551734,-9.615158
33.197238,-0.356749,-0.415259,-10.156416
33.230690,-0.367224,-0.353008,-9.956194
33.263225,-0.440100,-0.319787,-9.785003
33.297178,-0.464791,-0.314400,-10.212981
33.330474,-0.360939,-0.055368,-10.104790
33.363013,-0.333105,0.077665,-9.731879
33.396535,-0.151439,0.102206,-9.698210
33.430412,0.007482,0.286566,-10.168687
33.463751,-0.120463,0.444290,-9.932102
33.497157,-0.218329,0.748065,-9.416582
33.530557,-0.198127,0.822438,-9.582685
33.563801,-0.223866,0.842490,-9.756271
33.597121,-0.336248,0.944846,-9.272027
33.630494,-0.368421,0.831865,-9.497987
33.669252,-0.357647,0.807922,-9.827202
33.696460,-0.299436,0.841742,-9.625034
33.730466,-0.145303,0.628201,-9.767045
33.763892,-0.059857,0.278037,-9.937190
33.797241,-0.003891,0.126299,-9.746694
33.830039,-0.122857,0.250951,-10.019643
33.863859,0.444290,0.802685,-9.597949
33.897128,-0.328466,1.234105,-10.320874
33.929771,0.358844,1.138184,-9.829896
33.963841,-0.564154,0.763927,-9.490356
33.997226,-0.262623,0.080059,-10.098804
34.030505,-0.347770,-0.109838,-9.608274
34.063838,-0.393411,0.196032,-9.932251
34.097112,-0.360939,0.579268,-10.119305
34.130508,-0.352708,-0.070332,-10.152526
34.163943,-0.332507,-0.150990,-10.322071
34.197257,-0.237483,0.138569,-10.107633
34.230496,0.052225,-0.065544,-9.933448
34.263555,0.018855,-0.452670,-10.177965
34.297213,-0.049382,-0.319488,-10.134868
34.330502,0.122109,-0.846530,-9.755523
34.363835,0.300034,-1.773568,-9.537344
34.397240,0.369319,-2.848753,-9.197504
34.430479,0.298837,-1.537581,-9.615607
34.463811,0.100859,-1.498375,-9.743402
34.497246,-0.122707,-0.306469,-10.209989
34.530473,-0.170294,0.868827,-10.543692
34.563839,-0.143208,1.182927,-10.653231
34.596618,-0.115824,1.953289,-10.111823
34.630500,0.136325,1.279447,-9.955895
34.663838,0.180769,0.381290,-9.866259
34.697298,0.096220,-0.137672,-9.452346
34.729751,-0.064496,0.032622,-8.267474
34.763796,-0.065544,0.418252,-10.219266
34.797112,0.564453,-0.158622,-11.352213
34.830466,-0.180469,-0.377549,-9.041427
34.863944,-0.143657,-0.341485,-9.452795
34.897346,0.249156,-0.211595,-9.903819
34.930484,-0.060905,0.573132,-9.762706
34.963182,-0.109389,0.889777,-9.854287
34.997236,0.802236,1.022810,-9.120438
35.030479,-0.951280,2.072704,-9.654514
35.063367,-1.477874,2.246590,-11.487341
35.097170,-0.284471,0.446684,-9.479731
35.130521,-0.215486,0.060605,-8.069795
35.163844,-0.253495,-0.114178,-8.550149
35.197146,0.002843,0.856407,-10.385819
35.230666,0.263970,0.895314,-10.589034
35.263418,-0.092928,0.477361,-9.292977
35.297236,-0.092330,-0.203814,-9.872544
35.330506,-0.172538,-0.194985,-9.735920
35.363740,-0.339390,0.048933,-9.233568
35.397249,-0.329214,0.314849,-9.733974
35.430557,-0.313951,0.086344,-10.396444
35.463160,-0.335799,0.210847,-10.098205
35.497235,-0.334003,0.262623,-9.871197
35.530519,-0.311856,0.005686,-10.167789
35.563839,-0.336846,-0.157275,-10.319378
35.597169,-0.343131,-0.359143,-10.389560
35.630035,-0.282376,-0.426333,-9.837976
35.663839,-0.247809,-0.559365,-10.163450
35.697139,-0.264569,-0.580764,-10.263561
35.730506,-0.272799,-0.455962,-9.806851
35.763804,-0.266813,-0.338343,-9.574305
35.797235,-0.174633,-0.337295,-9.592861
35.833692,-0.174184,-0.303177,-9.573108
35.864562,-0.176429,-0.311108,-9.636557
35.896439,-0.254692,-0.325623,-9.844710
35.930466,-0.302428,-0.311856,-9.499035
35.963932,-0.313053,-0.270255,-9.312580
35.997293,-0.263521,-0.279832,-9.846955
36.030508,-0.259331,-0.322181,-10.277029
36.063840,-0.247659,-0.327419,-10.171081
36.097229,-0.122109,-0.313951,-9.985973
36.130586,-0.185707,-0.221472,-9.771684
36.163646,-0.213840,-0.128244,-10.218518
36.197240,-0.160567,-0.077216,-10.194875
36.230502,-0.093228,-0.007333,-9.765100
36.263926,-0.043696,0.087242,-9.527467
36.297352,-0.074821,0.115973,-9.672172
36.330513,-0.144405,0.052375,-9.396081
36.363518,-0.182864,0.059708,-9.810891
36.397567,-0.233742,-0.003591,-9.840520
36.430412,-0.219676,0.119864,-9.188077
36.463833,-0.200522,0.186754,-9.504272
36.497173,-0.270554,0.184360,-9.788145
36.530449,-0.265766,0.126748,-10.136963
36.563877,-0.124952,0.250951,-10.043885
36.597087,-0.106246,0.381739,-9.428404
36.630507,-0.094874,0.325024,-9.851893
36.663843,-0.168797,0.204263,-9.982232
36.697031,-0.145603,0.233742,-10.028921
36.730434,-0.158921,0.240476,-10.163150
36.763361,-0.186754,0.393112,-9.397128
36.797193,-0.133930,0.586900,-9.445762
36.830508,-0.164757,0.475715,-9.800266
36.863385,-0.214289,0.527042,-9.582685
36.896776,-0.159070,0.541857,-9.722153
36.930503,-0.101009,0.426183,-9.553355
36.972527,-0.065993,0.424088,-9.341162
36.997141,-0.027235,0.262174,-9.737865
37.030455,-0.070482,0.168797,-9.750734
37.063820,-0.031425,0.183612,-9.739511
37.097243,-0.022297,0.067040,-9.803558
37.130514,-0.049981,0.064197,-9.592562
37.163289,-0.107444,0.153833,-9.725594
37.197232,-0.206058,0.016760,-10.317283
37.230473,-0.241524,-0.032622,-10.124692
37.263836,-0.224165,-0.034867,-9.714521
37.297252,-0.312903,0.042948,-9.857280
37.330458,-0.332207,-0.041301,-10.224055
37.363087,-0.335799,-0.065993,-10.392403
37.397237,-0.275493,0.000449,-10.046130
37.430509,-0.180769,0.054470,-9.233868
37.463838,-0.163111,0.048634,-9.375879
37.497279,-0.188101,-0.121959,-10.117060
37.530681,-0.121061,-0.179721,-9.516693
37.563836,-0.091731,-0.198875,-9.293725
37.597246,-0.042349,-0.234490,-9.575054
37.630618,-0.144405,-0.225213,-9.253920
37.662993,-0.221023,-0.267861,-9.601840
37.697166,-0.234790,-0.336547,-10.217022
37.730471,-0.286417,-0.289409,-9.485567
37.763792,-0.254992,-0.258284,-9.565925
37.796623,-0.299884,-0.324725,-11.226513
37.830276,-0.378447,-0.183462,-9.925368
37.863796,-0.371115,-0.285519,-10.283763
37.897231,-0.363333,-0.238681,-10.358734
37.930655,-0.325473,-0.140215,-10.308005
37.963719,-0.234341,-0.117619,-10.808261
37.997169,-0.117320,0.086643,-9.818672
38.030510,-0.100261,0.218329,-9.384558
38.070522,-0.202617,0.165655,-9.136749
38.097198,-0.173137,0.243170,-9.190471
38.130474,-0.063748,0.251400,-9.543778
38.163849,-0.073175,0.360789,-8.887145
38.197239,-0.050729,0.517465,-8.849585
38.230468,-0.124503,0.580615,-9.070607
38.263237,-0.180619,0.494121,-9.337720
38.297125,-0.153983,0.459254,-9.776473
38.329554,-0.139467,0.441896,-10.066780
38.363848,-0.086943,0.507290,-9.639999
38.396514,-0.069883,0.570888,-9.828249
38.430507,-0.104451,0.392364,-10.600706
38.463641,-0.071978,0.437107,-9.696414
38.496403,-0.052824,0.234341,-10.860786
38.530460,-0.073175,0.197828,-10.598911
38.563805,-0.056864,0.445337,-9.555600
38.597176,-0.060605,0.351212,-10.077405
38.630435,-0.097866,0.253645,-9.591963
38.663897,-0.161465,0.257984,-9.290283
38.696683,-0.173287,0.096669,-9.321259
38.730465,-0.132135,0.133033,-9.345801
38.763806,-0.188101,0.217880,-9.546621
38.797154,-0.146800,0.270854,-8.893430
38.830503,-0.092779,0.064646,-9.325150
38.862976,-0.146949,-0.056565,-9.934646
38.897338,-0.156527,-0.059259,-10.016201
38.930294,-0.145453,0.042648,-10.235129
38.963795,-0.199175,0.119565,-9.838575
38.997633,-0.266664,0.015114,-9.685640
39.030518,-0.306768,-0.142759,-10.364719
39.063838,-0.309611,-0.236436,-10.584994
39.097240,-0.272051,-0.085446,-10.443132
39.133090,-0.297789,0.073475,-10.644103
39.163800,-0.303626,0.133781,-10.156117
39.197134,-0.218628,0.011223,-9.883917
39.230537,-0.168049,-0.081555,-9.887358
39.263840,-0.145752,-0.099812,-10.118706
39.297356,-0.102056,-0.032024,-10.218967
39.330536,-0.119864,0.133033,-9.325449
39.363844,-0.086344,0.160417,-9.712575
39.397194,-0.072577,0.124653,-9.866708
39.430509,-0.082304,0.182415,-9.173711
39.463474,-0.083201,0.090384,-9.453544
39.497129,-0.218628,-0.035914,-9.577448
39.530504,-0.218329,0.026936,-9.402066
39.563556,-0.202168,0.117470,-9.474344
39.597174,-0.275493,0.012271,-9.990612
39.630619,-0.318889,0.064496,-9.479132
39.663836,-0.259631,0.114028,-9.469256
39.697241,-0.192441,-0.042948,-10.709946
39.730516,-0.193488,-0.044444,-10.123196
39.763833,-0.208303,-0.083052,-9.889154
39.797178,-0.212493,-0.091282,-10.392703
39.830586,-0.277887,0.071529,-9.944223
39.863839,-0.247509,0.063149,-9.951406
39.896963,-0.176130,-0.006135,-9.847404
39.930455,-0.143508,0.072128,-9.825257
39.964005,-0.168049,0.039805,-9.626381
39.997133,-0.218628,0.003442,-9.336523
40.030510,-0.248258,-0.028432,-9.414187
40.063836,-0.264120,0.041301,-9.255865
40.097147,-0.205759,0.163111,-9.549764
40.130489,-0.173137,0.150092,-9.474793
40.163887,-0.206507,0.136624,-9.162039
40.197028,-0.158173,0.051028,-9.545724
40.230472,-0.186605,0.027385,-10.700518
40.263852,-0.147997,0.135427,-10.315936
40.301243,-0.106097,0.415259,-9.255416
40.330467,-0.058510,0.457159,-10.161205
40.363822,-0.130788,0.446535,-10.056455
40.397138,-0.143508,0.522703,-9.813884
40.430539,-0.065693,0.471076,-10.375344
40.463816,-0.130638,0.494720,-9.930905
40.497242,-0.173287,0.773804,-9.274271
40.531188,-0.115524,0.811214,-9.497987
40.563851,-0.196930,0.550836,-9.686238
40.597242,-0.241823,0.550087,-9.400271
40.630480,-0.128843,0.676236,-9.225039
40.664126,-0.139168,0.556672,-9.880924
40.697143,-0.154132,0.555175,-9.758366
40.730509,-0.033520,0.492475,-9.705842
40.763843,0.029330,0.298687,-9.881522
40.796285,-0.021848,0.248258,-9.729485
40.830538,-0.111634,0.238531,-9.702100
40.863885,-0.111035,0.157424,-10.226749
40.897238,-0.130040,0.064047,-10.321772
40.930473,-0.082304,0.139467,-9.688932
40.964010,-0.062850,0.106546,-9.659452
40.997130,-0.162213,-0.067788,-9.995101
41.030500,-0.241973,-0.098764,-9.623388
41.063852,-0.269208,-0.144705,-9.989565
41.097201,-0.280431,-0.172838,-10.316983
41.130585,-0.369618,-0.130938,-9.858477
41.163237,-0.368720,-0.235239,-9.801164
41.197173,-0.371414,-0.310808,-9.787696
41.230503,-0.378597,-0.326970,-9.438280
41.263880,-0.376801,-0.328915,-9.892746
41.296529,-0.367373,-0.326371,-10.570478
41.330507,-0.373808,-0.322032,-9.725894
41.371034,-0.370217,-0.292103,-9.191519
41.397182,-0.384283,-0.336996,-9.598398
41.430451,-0.533776,-0.375903,-9.886909
41.463112,-0.625807,-0.343580,-9.799219
41.497212,-0.690602,-0.299735,-10.056305
41.530475,-0.811514,-0.314250,-9.802361
41.563134,-0.928983,-0.084848,-9.802212
41.597174,-0.908033,-0.018256,-10.332845
41.630470,-0.734448,0.170443,-10.202806
41.663840,-0.533178,0.238980,-9.435437
41.697241,-0.626106,0.129441,-9.505769
41.730358,-0.662170,0.016910,-10.164497
41.763840,-0.630745,0.044743,-10.022935
41.797246,-0.539612,0.203814,-9.144531
41.830482,-0.427530,0.488584,-9.478684
41.863841,-0.450874,0.562059,-9.718112
41.897234,-0.525247,0.723524,-9.492451
41.930629,-0.528090,0.593933,-9.330687
41.963843,-0.444888,0.499359,-9.588821
41.997242,-0.365129,0.571636,-9.577448
42.030920,-0.350913,0.668605,-9.312580
42.063843,-0.248557,0.745970,-9.373185
42.097179,-0.166702,0.650199,-9.229079
42.130411,-0.149493,0.656334,-9.395332
42.163839,-0.247809,0.498610,-9.933748
42.197169,-0.346124,0.531382,-9.537194
42.231286,-0.362884,0.534076,-9.269932
42.263836,-0.357198,0.328167,-9.381715
42.297248,-0.412715,0.027235,-9.693720
42.330011,-0.505644,0.023793,-10.035505
42.363051,-0.553978,0.006734,-9.893045
42.396583,-0.714545,0.092479,-9.660799
42.432478,-0.892171,0.115524,-10.089077
42.463803,-0.810317,0.077066,-9.692972
42.497139,-0.683868,-0.181517,-9.927762
42.530523,-0.646458,-0.264868,-10.196970
42.562867,-0.514622,-0.297640,-9.848302
42.597249,-0.466886,-0.328616,-9.643141
42.630547,-0.525845,-0.319188,-9.649426
42.664011,-0.549040,-0.319488,-10.061992
42.696764,-0.540211,-0.279383,-9.493049
42.730502,-0.576425,-0.340587,-9.425111
42.763842,-0.654538,-0.338193,-9.578495
42.797116,-0.698683,-0.372312,-9.595704
42.830511,-0.695690,-0.594531,-9.874938
42.863840,-0.761234,-0.573132,-9.824957
42.897238,-0.655286,-0.581363,-10.568383
42.930378,-0.635833,-0.401941,-9.702100
42.963984,-0.596477,-0.427829,-9.847703
42.997141,-0.536171,-0.340887,-10.315936
43.030511,-0.607999,-0.152187,-9.999740
43.063429,-0.559216,-0.069584,-9.917137
43.097193,-0.488734,-0.123605,-9.417330
43.130502,-0.441297,-0.248707,-10.054360
43.163848,-0.441447,-0.156527,-9.431396
43.197245,-0.390269,-0.248258,-9.792335
43.230479,-0.420796,-0.134230,-9.429900
43.263831,-0.509684,0.200222,-9.389646
43.297241,-0.482449,0.355252,-9.668880
43.330497,-0.512078,0.250652,-9.541384
43.363857,-0.496066,-0.090534,-10.022636
43.397253,-0.498760,0.009577,-9.595555
43.430469,-0.504746,-0.059408,-9.467460
43.462980,-0.527940,-0.023943,-9.524624
43.497251,-0.589294,-0.037411,-9.695067
43.532810,-0.516717,-0.116422,-9.322606
43.564372,-0.501603,-0.111634,-9.518788
43.597142,-0.481850,-0.146800,-9.774228
43.630455,-0.427231,-0.209799,-9.343855
43.663442,-0.553529,-0.258733,-9.536895
43.697225,-0.606952,-0.281927,-9.605581
43.729743,-0.643465,-0.325623,-9.474494
43.763846,-0.615332,-0.309761,-9.289984
43.796571,-0.672196,-0.242571,-9.100386
43.830501,-0.719334,-0.220873,-11.307320
43.863847,-0.648253,-0.049831,-10.356190
43.897208,-0.668455,0.255889,-8.846891
43.930504,-0.484843,0.031126,-9.561586
43.963874,-0.526294,0.140814,-9.581788
43.996490,-0.757642,0.146650,-9.231024
44.030751,-0.581064,-0.123755,-9.469855
44.063873,-0.630895,-0.157125,-9.601989
44.097170,-0.619073,-0.128094,-10.293190
44.130504,-0.516119,0.107144,-9.753727
44.163716,-0.541259,0.040254,-10.278675
44.197171,-0.542456,0.057313,-9.418826
44.230548,-0.532280,-0.131237,-8.793768
44.263838,-0.557719,-0.277438,-9.192866
44.297110,-0.703771,-0.481701,-10.118407
44.330804,-0.758241,-0.522404,-10.014854
44.363866,-0.715293,-0.438005,-9.575203
44.397170,-0.773953,-0.320386,-10.556711
44.430567,-0.729509,0.005836,-9.900228
44.464175,-0.579417,-0.198726,-9.490206
44.497173,-0.558019,-0.329065,-9.784703
44.530516,-0.644961,-0.375604,-9.531059
44.563719,-0.673842,-0.522553,-10.066032
44.597176,-0.614135,-0.545748,-10.024880
44.630501,-0.524947,-0.337894,-8.746930
44.669985,-0.621617,-0.162812,-10.419788
44.697133,-0.687759,-0.098914,-9.532106
44.730506,-0.707661,-0.316944,-8.894926
44.763827,-0.761683,-0.545299,-9.919831
44.797172,-0.838898,-0.524798,-9.622041
44.830510,-0.859998,-0.341186,-10.175421
44.863813,-0.807922,-0.301979,-10.474707
44.897171,-0.863739,-0.128394,-9.419724
44.929754,-0.799393,-0.258134,-9.541683
44.964019,-0.744923,-0.314250,-10.173027
44.997177,-0.739835,-0.253944,-9.424363
45.030597,-0.736692,-0.326521,-9.572210
45.063556,-0.739535,-0.221023,-9.077491
45.097174,-0.594681,-0.220723,-9.901874
45.130788,-0.569541,-0.208004,-9.595555
45.163843,-0.652743,-0.175980,-8.963164
45.197013,-0.558168,-0.295246,-10.155818
45.230415,-0.622664,-0.161914,-10.160906
45.263842,-0.515670,0.059109,-8.966755
45.297258,-0.449827,-0.056864,-9.685340
45.330504,-0.552482,-0.070332,-10.056455
45.363874,-0.525097,-0.119714,-9.144680
45.396535,-0.373958,-0.202467,-8.930092
45.430541,-0.374407,-0.088289,-8.949396
45.463817,-0.467036,-0.001197,-9.886909
45.496395,-0.494720,-0.098016,-9.509660
45.530583,-0.465988,-0.226110,-9.495144
45.563595,-0.408076,-0.352409,-9.428553
45.597178,-0.414511,-0.332656,-10.248746
45.630550,-0.369618,-0.320984,-9.976845
45.663547,-0.369917,-0.335799,-9.463570
45.696821,-0.363932,-0.448480,-9.152911
45.730504,-0.332058,-0.572534,-10.348558
45.769557,-0.369917,-0.481252,-9.751782
45.796678,-0.390867,-0.455214,-9.361363
45.830483,-0.363333,-0.578969,-9.370941
45.863821,-0.371563,-0.474667,-9.662146
45.897133,-0.362735,-0.377848,-9.487363
45.929676,-0.347770,-0.546197,-10.929622
45.963856,-0.369169,-0.384882,-8.864100
45.997203,-0.379495,-0.620719,-8.947002
46.030433,-0.382338,-0.701227,-10.501343
46.063838,-0.524648,-0.341186,-9.730233
46.097170,-0.490530,-0.351811,-9.893643
46.130836,-0.344927,-0.341485,-9.673668
46.163837,-0.343131,-0.339540,-9.628326
46.196786,-0.316345,-0.560562,-9.817475
46.230504,-0.306918,-0.865385,-9.429601
46.263833,-0.354354,-1.090299,-9.836929
46.297548,-0.374407,-0.580315,-10.054360
46.330510,-0.364231,-0.331010,-9.616804
46.363684,-0.333853,-0.324127,-9.986123
46.397173,-0.375155,-0.512527,-9.426757
46.430506,-0.376651,-0.730407,-9.609322
46.463955,-0.354803,-0.996472,-10.578858
46.497183,-0.419898,-0.625358,-9.106970
46.529702,-0.400744,-0.660823,-9.092305
46.563835,-0.371563,-0.629099,-10.327458
46.597174,-0.440549,-0.334901,-9.404311
46.629797,-0.466437,-0.334153,-9.728887
46.663907,-0.362286,-0.325922,-9.975348
46.696966,-0.366925,-0.328766,-9.952603
46.730540,-0.342383,-0.412566,-9.823012
46.763963,-0.333704,-0.404036,-9.461175
46.796958,-0.354953,-0.351661,-9.451299
46.830505,-0.352259,-0.325922,-10.168837
46.863843,-0.364231,-0.226859,-9.937190
46.907394,-0.389820,-0.196930,-9.945420
46.930476,-0.397901,-0.253046,-9.891848
46.963793,-0.414062,-0.298837,-10.027275
46.997173,-0.395656,-0.330711,-10.216573
47.030506,-0.378297,-0.342682,-9.471800
47.064065,-0.376951,-0.389072,-9.554403
47.097169,-0.369319,-0.352858,-9.560688
47.130504,-0.372761,-0.317393,-9.585229
47.163830,-0.401043,-0.338642,-10.114217
47.197172,-0.391167,-0.356898,-9.842316
47.230479,-0.416307,-0.365428,-9.520733
47.263837,-0.425734,-0.541558,-10.222708
47.296852,-0.439651,-0.508786,-9.704195
47.330215,-0.381290,-0.583907,-9.472249
47.364054,-0.368271,-0.487836,-9.359867
47.397140,-0.418102,-0.413164,-10.347361
47.430461,-0.444290,-0.501454,-9.291331
47.463845,-0.496815,-0.649301,-9.561586
47.496904,-0.519261,-0.611890,-10.357537
47.530580,-0.566249,-0.425884,-10.273138
47.563783,-0.409722,-0.356749,-8.784340
47.597175,-0.375604,-0.323827,-8.387338
47.630507,-0.377998,-0.313352,-9.780663
47.663634,-0.488584,-0.324576,-10.195773
47.697132,-0.422143,-0.319937,-9.768392
47.730511,-0.389371,-0.256488,-9.926715
47.763654,-0.440698,-0.228654,-10.311746
47.797330,-0.393411,-0.448330,-9.461774
47.830477,-0.375005,-0.782782,-10.191732
47.863842,-0.422292,-0.579866,-9.647630
47.897172,-0.423938,-0.406430,-9.016436
47.937859,-0.387725,-0.331309,-10.237373
47.963919,-0.395506,-0.310060,-10.599958
47.997112,-0.430373,-0.363483,-9.213965
48.030460,-0.388323,-0.545149,-9.134505
48.063626,-0.371713,-0.861644,-10.157165
48.097228,-0.450126,-0.801338,-10.132474
48.130501,-0.379195,-0.610244,-9.008505
48.163805,-0.363932,-0.678631,-9.221298
48.197168,-0.491577,-0.704818,-10.367862
48.230400,-0.517615,-0.642118,-9.386653
48.263604,-0.468382,-0.804032,-9.831093
48.297172,-0.459853,-0.698234,-10.193827
48.330484,-0.480952,-0.613087,-9.629973
48.363836,-0.427979,-0.732951,-10.414850
48.397172,-0.374107,-0.721878,-9.476738
48.430087,-0.369468,-0.765424,-9.371689
48.463841,-0.346274,-1.081320,-9.599146
48.497132,-0.385780,-0.745372,-9.991360
48.530503,-0.417205,-0.529736,-10.220015
48.563669,-0.389670,-0.250802,-9.546023
48.596850,-0.366476,-0.176579,-9.265442
48.629970,-0.358694,-0.294048,-10.225551
48.663982,-0.368421,-0.327718,-9.727091
48.696400,-0.353606,-0.727414,-9.838126
48.730000,-0.378896,-0.625956,-9.231623
48.764049,-0.390718,-0.447582,-9.204987
48.796485,-0.376651,-0.337295,-10.051367
48.830460,-0.446834,-0.328017,-9.607825
48.863805,-0.414960,-0.357647,-9.876883
48.896401,-0.371115,-0.349716,-10.107184
48.930756,-0.394160,-0.338792,-9.774827
48.963809,-0.416456,-0.598572,-9.791886
48.997173,-0.450126,-0.695989,-10.224654
49.030501,-0.461349,-0.492924,-10.092519
49.068918,-0.380093,-0.299585,-9.371838
49.097139,-0.424986,-0.326671,-9.669478
49.130457,-0.599170,-0.359742,-10.098205
49.164077,-0.606653,-0.344927,-9.730383
49.197168,-0.521655,-0.356599,-9.713174
49.230474,-0.545897,-0.334452,-9.808347
49.263494,-0.582111,-0.327568,-9.963676
49.297168,-0.620569,-0.389371,-9.673968
49.329627,-0.664714,-0.373210,-9.592711
49.363844,-0.740583,-0.325024,-9.736668
49.397148,-0.797747,-0.218179,-9.898133
49.430504,-0.806276,-0.278635,-9.716915
49.463833,-0.985848,-0.350164,-10.023534
49.496986,-0.859549,-0.364680,-9.861620
49.530618,-0.908782,-0.351811,-9.792934
49.563711,-1.163175,-0.531681,-9.713473
49.596214,-1.356962,-0.674291,-9.710929
49.629523,-1.147761,-0.598273,-10.333743
49.663825,-0.988841,-0.380991,-9.833936
49.697171,-0.887532,-0.361088,-9.365254
49.730521,-0.915067,-0.571786,-10.070222
49.763871,-0.862991,-0.561610,-10.201309
49.796714,-0.833212,-0.577921,-9.887508
49.830507,-0.752255,-0.691500,-9.515346
49.863917,-0.805378,-0.760186,-9.613961
49.897013,-0.908333,-0.470477,-9.575054
49.930507,-1.012783,-0.352858,-10.340477
49.963838,-1.013681,-0.330112,-9.869701
49.996668,-0.959211,-0.311407,-9.343107
50.030507,-0.734747,-0.336547,-9.524175
50.063542,-0.747467,-0.358245,-9.648828
50.096668,-0.786972,-0.412715,-9.952453
50.130502,-0.794604,-0.526444,-9.604533
50.168340,-0.853414,-0.423639,-8.956729
50.197190,-0.836504,-0.383086,-9.476439
50.230592,-0.899504,-0.321433,-10.387465
50.263855,-0.916264,-0.262623,-9.866857
50.297181,-0.895912,-0.430672,-10.061992
50.330185,-0.769314,-0.383236,-9.311832
50.363373,-0.856706,-0.429625,-9.531956
50.396686,-0.735345,-0.427979,-9.544227
50.430520,-0.789516,-0.626854,-9.186730
50.463843,-0.843837,-0.586600,-9.498436
50.497117,-0.829620,-0.361537,-9.663343
50.530488,-0.907435,-0.319039,-9.771535
50.563838,-0.800290,-0.386827,-9.398475
50.597185,-0.752854,-0.535572,-9.820169
50.630508,-0.781884,-0.539014,-9.805055
50.663905,-0.736992,-0.556522,-9.838276
50.697167,-0.755398,-0.556073,-9.846656
50.730503,-0.943050,-0.577322,-9.656010
50.763792,-0.990487,-0.531681,-9.749837
50.797171,-1.002757,-0.548890,-10.373249
50.830296,-0.941404,-0.405383,-10.166443
50.863865,-0.729958,-0.445188,-9.238357
50.897161,-0.618624,-0.537966,-9.584182
50.930484,-0.630745,-0.452221,-10.349755
50.963834,-0.611890,-0.334751,-9.714670
50.997270,-0.542156,-0.404036,-9.563232
51.030506,-0.717987,-0.622664,-9.738613
51.063628,-0.832164,-0.500256,-9.589419
51.096789,-0.824832,-0.477211,-9.812537
51.130706,-0.927038,-0.595729,-10.160008
51.163555,-0.924494,-0.544700,-9.348195
51.197169,-0.771709,-0.604258,-9.783357
51.230501,-0.710205,-0.374257,-9.784853
51.266322,-0.766920,-0.425585,-10.126637
51.297220,-0.773654,-0.743875,-9.631469
51.330450,-0.778293,-0.847278,-9.509360
51.362937,-0.729060,-0.823635,-9.395931
51.397172,-0.651096,-0.657830,-10.950123
51.430515,-0.630446,-0.551135,-10.590231
51.463839,-0.685065,-0.572833,-9.220849
51.497191,-0.591838,-0.705716,-9.911451
51.530505,-0.695241,-0.385780,-10.047177
51.563832,-0.725319,-0.450425,-9.900826
51.597340,-0.705716,-0.747167,-9.391591
51.630522,-0.725768,-0.660374,-9.114752
51.663782,-0.803732,-0.573731,-9.247635
51.697226,-0.942900,-0.650049,-10.635274
51.730531,-0.990936,-0.529586,-10.561051
51.763229,-0.916713,-0.367673,-9.120887
51.796308,-0.726367,-0.446834,-9.874938
51.830246,-0.783381,-0.377250,-10.317732
51.863837,-0.787272,-0.362435,-9.814782
51.897166,-0.619223,-0.391765,-9.596602
51.930516,-0.605306,-0.424986,-9.816278
51.963673,-0.677883,-0.540361,-9.296568
51.997180,-0.523900,-0.410321,-10.034009
52.030506,-0.651545,-0.339390,-10.655326
52.063585,-0.686861,-0.297341,-9.823311
52.097189,-0.667258,-0.326222,-9.186281
52.130473,-0.761084,-0.267412,-10.530973
52.163356,-0.941553,-0.300184,-10.178115
52.197484,-1.027149,-0.336248,-9.128220
52.229861,-0.898307,-0.492176,-9.603635
52.263844,-0.884689,-0.512826,-9.370342
52.296667,-0.840395,-0.517465,-9.407304
52.337305,-0.700179,-0.385331,-10.568533
52.363794,-0.741481,-0.257087,-9.696863
52.396854,-0.703172,-0.336098,-9.160842
52.430459,-0.602762,-0.686263,-9.928660
52.463847,-0.697935,-0.494720,-10.207744
52.497326,-0.758540,-0.392813,-9.733825
52.530513,-0.661272,-0.568494,-9.638652
52.563843,-0.689405,-0.658579,-9.467460
52.597168,-0.836055,-0.796549,-9.525073
52.630501,-0.700928,-0.700479,-9.977294
52.663833,-0.674441,-0.731155,-10.325064
52.697654,-0.763029,-0.638826,-9.620844
52.730506,-0.646757,-0.679379,-9.321259
52.763769,-0.623861,-0.745072,-9.846207
52.797173,-0.692099,-0.837552,-10.030716
52.830470,-0.733699,-0.940506,-9.222196
52.863838,-0.810466,-0.944247,-9.935992
52.897175,-0.905639,-0.822288,-10.067977
52.930218,-0.786374,-0.719034,-9.716017
52.963928,-0.622215,-0.653940,-10.101049
52.997081,-0.636282,-0.684317,-9.922076
53.030511,-0.561610,-0.682671,-9.493498
53.063842,-0.538266,-0.825580,-10.073664
53.096594,-0.548890,-0.797747,-10.287354
53.130509,-0.578819,-0.733849,-9.619797
53.163556,-0.553080,-0.624909,-9.757019
53.197127,-0.697785,-0.535422,-9.774378
53.230501,-0.766322,-0.607700,-9.675913
53.263854,-0.711702,-0.573581,-9.533752
53.297127,-0.669951,-0.416606,-9.489458
53.330503,-0.687460,-0.482000,-9.447408
53.363426,-0.612339,-0.474218,-9.775126
53.397176,-0.533178,-0.340887,-10.026975
53.432283,-0.414960,-0.346423,-9.694469
53.463773,-0.389670,-0.406879,-9.549016
53.497134,-0.389970,-0.462696,-9.795029
53.530450,-0.413613,-0.412416,-9.842615
53.563912,-0.414661,-0.364381,-9.874938
53.596939,-0.389670,-0.342832,-9.803259
53.630500,-0.365727,-0.281927,-9.238357
53.663843,-0.331758,-0.354504,-9.749388
53.696958,-0.366027,-0.452969,-9.817625
53.730505,-0.357048,-0.542306,-9.585229
53.763833,-0.308863,-0.502202,-9.927463
53.797001,-0.289858,-0.408825,-9.895738
53.830503,-0.299735,-0.376202,-10.683908
53.863273,-0.339989,-0.388174,-9.378423
53.897262,-0.316046,-0.682671,-9.672172
53.930476,-0.313053,-0.844435,-10.361577
53.963851,-0.335799,-0.621168,-9.841268
53.997167,-0.213092,-0.620569,-9.648528
54.030166,-0.203814,-0.605156,-9.297466
54.063837,-0.203814,-0.686861,-9.726343
54.097131,-0.243319,-0.806575,-10.035655
54.130328,-0.272949,-0.890824,-9.809245
54.163879,-0.253794,-0.838150,-10.114816
54.196744,-0.302129,-0.671897,-9.783506
54.230537,-0.332956,-0.731155,-9.830195
54.263840,-0.345226,-0.793706,-9.970111
54.296709,-0.315298,-0.749113,-9.854587
54.330381,-0.224464,-0.804480,-9.849199
54.363840,-0.170144,-0.745072,-9.705243
54.396627,-0.177477,-0.624161,-9.619647
54.429948,-0.222519,-0.626705,-9.801613
54.463838,-0.270704,-0.586600,-9.750884
54.497071,-0.262773,-0.682521,-9.826603
54.530525,-0.258882,-0.670550,-9.668132
54.566229,-0.317991,-0.682372,-9.590467
54.597105,-0.343730,-0.672645,-9.897085
54.630459,-0.356599,-0.525396,-9.785302
54.663832,-0.372910,-0.462995,-9.616954
54.697124,-0.349865,-0.530933,-9.642991
54.730501,-0.356599,-0.623263,-9.872394
54.763855,-0.352110,-0.624460,-9.923572
54.797600,-0.250502,-0.571935,-9.650025
54.830486,-0.198127,-0.573881,-9.855335
54.863846,-0.228355,-0.603510,-9.981484
54.897177,-0.272201,-0.591838,-9.745647
54.930674,-0.327419,-0.667258,-9.478534
54.963866,-0.326671,-0.626854,-9.787098
54.997115,-0.330861,-0.644063,-9.828698
55.030503,-0.348668,-0.647505,-9.641944
55.063843,-0.333853,-0.567296,-9.458931
55.096747,-0.342832,-0.649301,-9.895888
55.130506,-0.361537,-0.598422,-9.620395
55.163837,-0.336697,-0.638078,-9.558443
55.196929,-0.277737,-0.752704,-9.831691
55.230655,-0.341036,-0.655735,-9.945570
55.263760,-0.323079,-0.634935,-9.723649
55.297176,-0.228654,-0.627902,-9.748789
55.330503,-0.235688,-0.635983,-9.811639
55.363811,-0.253196,-0.715144,-9.441722
55.397205,-0.260079,-0.709756,-9.649725
55.430474,-0.322181,-0.551434,-9.890351
55.463162,-0.340887,-0.461948,-9.735471
55.497173,-0.285369,-0.515071,-9.532405
55.530603,-0.309013,-0.660524,-9.663193
55.563841,-0.323229,-0.600218,-9.833038
55.602353,-0.310808,-0.486489,-9.963227
55.630434,-0.322780,-0.397452,-10.010664
55.663794,-0.351511,-0.370516,-9.659153
55.697162,-0.331459,-0.348967,-9.536595
55.730505,-0.329065,-0.413164,-10.086384
55.763962,-0.331908,-0.399247,-9.639250
55.797170,-0.283873,-0.398200,-9.707637
55.830544,-0.204712,-0.339689,-10.007671
55.863816,-0.191693,-0.315896,-9.635210
55.897170,-0.201719,-0.330262,-9.164284
55.930504,-0.231348,-0.367673,-9.755523
55.963807,-0.367373,-0.414810,-9.792335
55.997165,-0.363632,-0.353906,-9.316620
56.030502,-0.253645,-0.348069,-9.626980
56.063816,-0.320086,-0.450126,-9.723200
56.097164,-0.335350,-0.461050,-9.437083
56.130507,-0.270704,-0.524199,-9.506966
56.163820,-0.315747,-0.572235,-9.822413
56.197175,-0.278635,-0.571187,-9.535099
56.230555,-0.242422,-0.606353,-9.430349
56.263922,-0.237184,-0.712749,-9.839772
56.297124,-0.308414,-0.897558,-9.905166
56.330482,-0.303326,-0.900551,-9.660051
56.363945,-0.238232,-0.890974,-9.699257
56.397018,-0.328017,-0.866283,-10.239169
56.430522,-0.329663,-0.867181,-9.942427
56.463835,-0.323678,-0.896661,-9.846057
56.496827,-0.353606,-0.901000,-9.783506
56.530592,-0.370965,-0.716341,-10.065882
56.563638,-0.370965,-0.700778,-9.955446
56.597138,-0.354504,-0.784578,-9.644937
56.630505,-0.312454,-0.778443,-9.753428
56.663715,-0.291355,-0.786972,-10.064087
56.697167,-0.294198,-0.655286,-9.736818
56.730507,-0.256488,-0.664564,-9.630870
56.773323,-0.264120,-0.596626,-9.467760
56.797138,-0.300483,-0.654838,-9.717813
56.830460,-0.278635,-0.610843,-10.070821
56.863413,-0.245414,-0.451772,-9.367798
56.897212,-0.225213,-0.436209,-9.137797
56.930570,-0.155928,-0.544401,-10.200860
56.963847,-0.306319,-0.648702,-10.073365
56.997180,-0.275343,-0.577472,-9.456387
57.030623,-0.132135,-0.695690,-9.713473
57.063836,-0.274894,-0.488285,-10.148934
57.097142,-0.302728,-0.446684,-9.834534
57.130527,-0.251251,-0.413613,-9.763005
57.163855,-0.332806,-0.356150,-10.146839
57.197542,-0.361388,-0.427530,-9.462522
57.230861,-0.320535,-0.478857,-9.099339
57.263795,-0.243469,-0.648403,-9.601690
57.297171,-0.244816,-0.498311,-9.887658
57.330510,-0.147548,-0.381590,-9.711229
57.363753,-0.149793,-0.351362,-9.566674
57.397182,-0.212792,-0.397302,-9.695965
57.430503,-0.321583,-0.486340,-9.655861
57.463827,-0.362585,-0.743426,-10.148934
57.497172,-0.369020,-0.766621,-10.062590
57.530295,-0.354354,-0.565650,-9.345651
57.563879,-0.309162,-0.582859,-9.699257
57.597166,-0.353157,-0.764077,-9.936741
57.630505,-0.352110,-0.858801,-9.312430
57.663800,-0.266963,-0.982855,-9.700903
57.696796,-0.286117,-0.726367,-10.555813
57.730501,-0.302877,-0.564154,-9.930755
57.763711,-0.115225,-0.623263,-9.468957
57.797171,-0.088888,-0.749861,-9.980287
57.831326,-0.242422,-0.750010,-9.986721
57.863335,-0.193039,-0.870024,-9.708834
57.897124,-0.211595,-0.889328,-9.711977
57.930497,-0.317991,-0.569092,-9.915042
57.963364,-0.276391,-0.550985,-9.722901
57.997300,-0.250951,-0.631793,-9.634312
58.030481,-0.317991,-0.713348,-9.881223
58.063704,-0.339091,-0.652743,-9.609771
58.097170,-0.328766,-0.567596,-9.791737
58.130491,-0.343580,-0.578071,-9.834834
58.163841,-0.305122,-0.503549,-9.874938
58.197271,-0.262324,-0.388323,-9.366302
58.230508,-0.264419,-0.379794,-9.350290
58.263844,-0.316944,-0.529437,-9.734423
58.297464,-0.318590,-0.566847,-9.761808
58.330521,-0.261576,-0.470627,-9.682647
58.363761,-0.185857,-0.336996,-9.645386
58.397211,-0.246163,-0.367822,-9.718711
58.430488,-0.326671,-0.580914,-9.950807
58.463507,-0.328017,-0.562209,-9.992707
58.497176,-0.275642,-0.396703,-9.803109
58.530281,-0.271153,-0.352259,-9.639101
58.563890,-0.284322,-0.367523,-9.803558
58.597339,-0.284022,-0.500556,-9.980436
58.630504,-0.246761,-0.543204,-9.909655
58.663915,-0.203215,-0.497264,-9.800266
58.696790,-0.166403,-0.553978,-9.669029
58.730481,-0.222220,-0.552482,-9.740708
58.763832,-0.230749,-0.537517,-9.839473
58.796545,-0.242422,-0.487836,-9.496192
58.830519,-0.208153,-0.450276,-9.609023
58.862987,-0.277139,-0.559665,-9.688034
58.897165,-0.347022,-0.671897,-9.485417
58.930475,-0.358694,-0.903544,-9.704046
58.963369,-0.374257,-0.934670,-9.700005
58.996513,-0.370067,-0.907884,-10.113619
59.030454,-0.356449,-0.790713,-9.586875
59.063877,-0.349267,-0.853863,-9.730682
59.097170,-0.342832,-0.774402,-10.081745
59.130517,-0.278037,-0.646308,-9.970859
59.163860,-0.238980,-0.638078,-9.927762
59.197608,-0.207106,-0.649151,-9.742654
59.230506,-0.215187,-0.635234,-9.867306
59.263859,-0.217880,-0.756595,-9.685789
59.297228,-0.227158,-0.761982,-9.818223
59.330803,-0.278635,-0.549938,-9.739661
59.363511,-0.310210,-0.409273,-9.719758
59.397213,-0.311706,-0.348219,-9.672022
59.430519,-0.354953,-0.362585,-10.013058
59.463868,-0.345376,-0.363183,-9.710780
59.497172,-0.347321,-0.405682,-9.496341
59.530506,-0.306319,-0.499807,-10.065134
59.563790,-0.262324,-0.475565,-9.677709
59.597164,-0.148895,-0.571037,-9.421969
59.630583,-0.177477,-0.647056,-9.829746
59.663697,-0.326072,-0.619671,-9.772283
59.697197,-0.325473,-0.574180,-9.550811
59.730507,-0.259481,-0.731455,-9.727689
59.763723,-0.264868,-0.455962,-9.516244
59.797252,-0.264269,-0.521206,-9.435736
59.830478,-0.319039,-0.585553,-9.563681
59.863844,-0.373210,-0.818697,-10.027424
59.897167,-0.342533,-0.810317,-9.625483
59.930164,-0.314549,-0.887981,-9.803858
59.963886,-0.354803,-0.883492,-9.707039
59.999683,-0.370516,-0.896960,-10.127236
60.030482,-0.325623,-0.775450,-9.702400
60.063830,-0.287314,-0.782184,-10.198466
60.097110,-0.308414,-0.795652,-9.562783
60.129932,-0.322032,-0.787720,-9.498436
60.163885,-0.332956,-0.995425,-9.763903
60.197439,-0.393262,-0.801488,-10.061393
60.230503,-0.389072,-0.698833,-9.582087
60.263862,-0.392663,-0.508337,-9.694020
60.297182,-0.511180,-0.522852,-9.839772
60.330544,-0.573132,-0.490679,-10.014854
60.363822,-0.661571,-0.387276,-9.541683
60.397164,-0.681025,-0.369020,-9.878679
60.430505,-0.674890,-0.352409,-9.397876
60.463871,-0.647056,-0.456561,-9.220699
60.497189,-0.646308,-0.545748,-9.316321
60.530254,-0.736543,-0.560712,-9.597201
60.563883,-0.862093,-0.549339,-9.579693
60.597170,-0.855808,-0.429775,-9.611566
60.630043,-0.921052,-0.387126,-9.730233
60.663875,-0.869126,-0.337594,-9.943774
60.697447,-0.768566,-0.390119,-10.018595
60.730527,-0.761683,-0.449677,-9.849349
60.762942,-0.682821,-0.480354,-9.703597
60.797145,-0.526743,-0.550536,-9.688333
60.830480,-0.508187,-0.597225,-9.866857
60.863812,-0.438005,-0.566399,-9.617851
60.897130,-0.429475,-0.503549,-9.598248
60.930485,-0.427380,-0.634935,-9.943026
60.963854,-0.453418,-0.569541,-9.889004
60.997230,-0.480354,-0.639424,-10.139656
61.030593,-0.469580,-0.569242,-9.570864
61.063792,-0.450276,-0.567596,-9.547220
61.097171,-0.454316,-0.645260,-9.743252
61.134527,-0.562957,-0.704519,-9.811789
61.163840,-0.585852,-0.840694,-9.798471
61.197135,-0.564304,-0.776198,-9.858477
61.230530,-0.563256,-0.584954,-9.818074
61.263391,-0.575377,-0.652593,-9.878978
61.297305,-0.688058,-0.635085,-10.113768
61.330929,-0.750609,-0.663068,-9.995401
61.363834,-0.686412,-0.508786,-9.546771
61.397173,-0.603360,-0.540959,-9.668281
61.430945,-0.559814,-0.708260,-9.660200
61.463694,-0.576275,-0.679678,-9.765250
61.497250,-0.641819,-0.659476,-10.114965
61.530479,-0.663966,-0.477062,-9.832739
61.563917,-0.624011,-0.447283,-9.436634
61.597187,-0.599769,-0.515370,-9.702998
61.630605,-0.629398,-0.566099,-10.086084
61.663958,-0.625059,-0.577921,-9.108467
61.697205,-0.647954,-0.773953,-9.720207
61.730508,-0.569242,-0.496964,-9.283100
61.763780,-0.632391,-0.543802,-9.723799
61.797238,-0.602463,-0.681923,-9.552458
61.830657,-0.668605,-0.561760,-9.839772
61.863907,-0.633588,-0.709906,-9.666186
61.897164,-0.598572,-0.587498,-9.709134
61.930630,-0.682073,-0.519261,-9.809095
61.964222,-0.648253,-0.556672,-9.616056
61.997179,-0.569541,-0.475116,-9.829896
62.030512,-0.535572,-0.567296,-9.590168
62.063596,-0.513126,-0.597225,-9.429900
62.097260,-0.554277,-0.769464,-9.519536
62.130491,-0.598871,-0.921651,-9.721554
62.163807,-0.608598,-0.842041,-9.922525
62.197188,-0.558617,-0.734597,-9.924021
62.237263,-0.621168,-0.681175,-9.860722
62.263826,-0.750759,-0.673244,-10.078303
62.297129,-0.716490,-0.761982,-9.957242
62.330491,-0.650348,-0.699132,-9.505320
62.363954,-0.554128,-0.716790,-9.750435
62.397139,-0.489033,-0.585254,-9.541384
62.430586,-0.465838,-0.594980,-9.472698
62.463967,-0.504596,-0.669951,-9.655412
62.497781,-0.655885,-0.575976,-9.866408
62.530499,-0.647206,-0.588695,-10.007073
62.563838,-0.602762,-0.582111,-9.508313
62.597408,-0.669802,-0.626405,-9.801164
62.630582,-0.691650,-0.769913,-9.960085
62.662921,-0.662918,-0.704968,-9.864762
62.697204,-0.611591,-0.629847,-9.517591
62.730067,-0.511629,-0.428278,-9.338917
62.763198,-0.537069,-0.548142,-9.483322
62.797292,-0.567745,-0.700628,-9.685340
62.830516,-0.597973,-0.570140,-9.838874
62.863529,-0.510282,-0.519860,-10.147438
62.897173,-0.500556,-0.381739,-9.853240
62.930272,-0.562209,-0.624759,-10.153723
62.964065,-0.562059,-0.786074,-9.826454
62.997167,-0.594382,-0.588995,-9.705093
63.030633,-0.633738,-0.588246,-9.744599
63.063847,-0.630595,-0.537667,-9.660649
63.097327,-0.614883,-0.496964,-9.404910
63.130501,-0.639873,-0.588995,-9.523726
63.164440,-0.614584,-0.693296,-9.733077
63.197107,-0.548441,-0.592137,-9.476439
63.230577,-0.516567,-0.666809,-10.014854
63.263566,-0.450425,-0.509834,-9.722302
63.296623,-0.388174,-0.598123,-9.862069
63.330583,-0.384283,-0.699431,-9.815380
63.363795,-0.390867,-0.724422,-9.753278
63.396478,-0.386228,-0.704818,-9.706290
63.430544,-0.377100,-0.537069,-9.858028
63.463854,-0.372910,-0.486639,-9.809394
63.497130,-0.347471,-0.517765,-9.773779
63.530552,-0.342832,-0.655286,-9.667084
63.563826,-0.337894,-0.775450,-9.803708
63.597152,-0.343431,-0.740882,-9.632666
63.629623,-0.308115,-0.638676,-9.847853
63.663866,-0.275044,-0.565201,-9.745048
63.697206,-0.309761,-0.495019,-9.513999
63.730469,-0.240327,-0.595878,-9.661996
63.763655,-0.251699,-0.700479,-9.483771
63.797146,-0.229552,-0.739535,-9.750435
63.830588,-0.233144,-0.682970,-9.943325
63.863844,-0.212194,-0.688058,-10.153424
63.897266,-0.165505,-0.734597,-9.738164
63.930554,-0.126299,-0.699281,-9.618600
63.963081,-0.123904,-0.825730,-9.832888
63.997305,-0.157724,-0.932425,-9.909655
64.030843,-0.205011,-0.692398,-9.845758
64.063831,-0.199624,-0.523451,-9.687884
64.097285,-0.204712,-0.518812,-10.143098
64.130144,-0.242721,-0.529437,-9.413888
64.163838,-0.296293,-0.685514,-9.413140
64.197224,-0.335350,-0.827077,-9.864613
64.230156,-0.375454,-0.661871,-9.782459
64.263835,-0.353457,-0.543354,-9.843214
64.297229,-0.332956,-0.589892,-9.812088
64.330124,-0.258583,-0.621467,-9.493797
64.363812,-0.216833,-0.872269,-9.850546
64.397191,-0.225063,-0.917162,-10.021139
64.434616,-0.194386,-0.704070,-9.635509
64.463803,-0.186605,-0.560263,-10.475006
64.497218,-0.273847,-0.403288,-9.392788
64.530502,-0.261277,-0.457758,-9.252723
64.563795,-0.260079,-0.737889,-9.738763
64.597173,-0.353307,-0.703023,-10.066331
64.629603,-0.351960,-0.647355,-9.650923
64.664509,-0.316495,-0.608748,-9.366751
64.697142,-0.309013,-0.527192,-10.714136
64.730531,-0.314101,-0.334003,-9.616056
64.763862,-0.161465,-0.515819,-8.979475
64.796955,-0.163260,-0.766172,-9.702100
64.830601,-0.363782,-0.733400,-10.107184
64.863807,-0.246612,-0.642567,-9.416582
64.897067,-0.133781,-0.650947,-9.585828
64.930562,-0.209201,-0.640023,-10.018446
64.963504,-0.240476,-0.614733,-9.392489
64.997147,-0.124802,-0.829620,-9.755822
65.030585,-0.188700,-0.853414,-10.470667
65.063718,-0.258134,-0.662020,-9.511755
65.097199,-0.170443,-0.693745,-9.547968
65.130494,-0.240177,-0.796100,-9.722452
65.163736,-0.357347,-0.825730,-9.940332
65.197169,-0.264120,-0.840245,-9.523427
65.230042,-0.218479,-0.833661,-9.699557
65.263891,-0.314250,-0.676835,-9.919232
65.297003,-0.286716,-0.635534,-10.025329
65.330529,-0.218778,-0.833362,-9.603037
65.363864,-0.197379,-0.885437,-9.933748
65.396536,-0.148446,-0.754051,-10.105837
65.430514,-0.115524,-0.642716,-9.666037
65.463446,-0.118218,-0.699581,-9.457584
65.496936,-0.120463,-0.679529,-9.920130
65.530560,-0.206208,-0.665761,-9.762855
65.566239,-0.220125,-0.748813,-9.434539
65.596518,-0.235388,-0.851319,-9.724697
65.630457,-0.298687,-0.618774,-10.148336
65.663816,-0.225512,-0.546795,-9.604533
65.697185,-0.208453,-0.583009,-9.333380
65.730475,-0.275942,-0.612489,-9.864164
65.763817,-0.288063,-0.517016,-10.069624
65.797274,-0.156227,-0.508936,-9.410746
65.830249,-0.106246,-0.483197,-9.485567
65.863565,-0.145902,-0.479905,-9.627429
65.897212,-0.238681,-0.524798,-9.752530
65.930481,-0.220723,-0.596028,-9.805803
65.963387,-0.219975,-0.568494,-9.923273
65.997052,-0.229253,-0.345376,-9.732628
66.030157,-0.237334,-0.345675,-9.680253
66.063987,-0.224464,-0.392813,-9.712426
66.097051,-0.212643,-0.430672,-9.477486
66.130483,-0.155030,-0.525396,-9.650025
66.163875,-0.216833,-0.452969,-9.615607
66.196605,-0.262474,-0.496216,-9.409698
66.230555,-0.228505,-0.533178,-10.156865
66.263870,-0.224764,-0.544251,-9.858926
66.296528,-0.155180,-0.519411,-9.636108
66.330560,-0.223716,-0.812412,-9.930007
66.363858,-0.297640,-0.801787,-10.193678
66.397150,-0.313203,-0.687609,-9.983878
66.430528,-0.295545,-0.603510,-9.437232
66.463818,-0.217880,-0.748963,-9.465964
66.497131,-0.222968,-0.896661,-9.654664
66.530526,-0.251101,-0.897259,-9.587474
66.563811,-0.245115,-1.066805,-10.296632
66.597032,-0.263372,-0.807473,-10.844624
66.630531,-0.227008,-0.503997,-10.378487
66.668996,-0.172239,-0.392513,-8.929943
66.697138,-0.278037,-0.627902,-10.254881
66.729563,-0.323229,-0.690004,-10.329104
66.764096,-0.362435,-0.668754,-9.065968
66.797197,-0.207106,-0.637928,-9.603037
66.830477,-0.302428,-0.384582,-10.078004
66.863399,-0.325324,-0.335499,-9.505769
66.897293,-0.201868,-0.384283,-9.477187
66.930429,-0.244367,-0.458207,-10.530225
66.963878,-0.272649,-0.405383,-10.070970
66.997176,-0.148745,-0.463444,-9.419425
67.030252,-0.156078,-0.472572,-9.828399
67.063843,-0.236286,-0.472123,-10.079799
67.096980,-0.275942,-0.417354,-9.335326
67.130575,-0.259780,-0.457309,-9.884964
67.163759,-0.331160,-0.362735,-9.723499
67.197194,-0.358096,-0.438155,-9.707338
67.230502,-0.297041,-0.683868,-9.768093
67.263748,-0.325024,-0.711702,-10.029220
67.297230,-0.324875,-0.689854,-9.850247
67.330493,-0.182415,-0.641220,-9.670227
67.363877,-0.185408,-0.704220,-9.888556
67.397209,-0.194237,-0.720531,-10.212981
67.430032,-0.227308,-0.744623,-9.868803
67.463876,-0.318291,-0.827525,-9.705991
67.497029,-0.374107,-0.851319,-10.066481
67.530521,-0.360191,-0.893518,-10.074562
67.563865,-0.308564,-1.005900,-9.713773
67.596348,-0.246312,-1.053935,-9.690578
67.630565,-0.261875,-0.986446,-9.675913
67.663765,-0.325473,-0.816452,-9.989714
67.697158,-0.297640,-0.804780,-10.071719
67.730462,-0.198127,-0.620719,-9.444266
67.766696,-0.164458,-0.764526,-9.600194
67.797191,-0.280730,-0.785177,-9.456387
67.830446,-0.362735,-0.897858,-10.003481
67.863388,-0.379495,-0.868228,-10.498051
67.897178,-0.330412,-0.470477,-9.445164
67.930500,-0.221472,-0.426333,-9.001771
67.963897,-0.154731,-0.641220,-9.812088
67.997130,-0.320834,-0.734148,-10.300223
68.030555,-0.324875,-0.674890,-9.766297
68.063819,-0.268160,-0.577472,-9.337121
68.096704,-0.335200,-0.345825,-9.879876
68.130755,-0.352259,-0.345974,-9.798171
68.163655,-0.368122,-0.553978,-9.651671
68.197144,-0.403288,-0.573881,-10.029519
68.230534,-0.435760,-0.314400,-9.264096
68.263450,-0.415858,-0.303326,-9.368097
68.297174,-0.414062,-0.331609,-9.845009
68.330530,-0.550836,-0.330262,-9.811190
68.363489,-0.560562,-0.234490,-9.375430
68.397232,-0.592586,-0.328766,-9.731879
68.430251,-0.671298,-0.353606,-9.811190
68.463839,-0.705417,-0.413015,-9.418228
68.497221,-0.711103,-0.543503,-9.683096
68.529994,-0.775450,-0.527791,-9.740409
68.563538,-0.783680,-0.369768,-9.543329
68.597158,-0.796100,-0.473919,-10.098205
68.629767,-0.746419,-0.492325,-9.862967
68.663244,-0.803433,-0.578819,-9.820019
68.697175,-0.796400,-0.589892,-9.529412
68.730123,-0.861494,-0.760785,-9.958439
68.764611,-0.842041,-0.790115,-10.076956
68.796444,-0.664265,-0.689106,-9.649725
68.830424,-0.562059,-0.753752,-10.086084
68.863804,-0.545149,-0.714096,-9.891698
68.897082,-0.424836,-0.732652,-9.750734
68.930435,-0.410920,-0.821989,-9.667832
68.963755,-0.493074,-0.658728,-9.919981
68.997091,-0.564304,-0.514772,-9.527168
69.030407,-0.561161,-0.541558,-9.355378
69.063742,-0.697486,-0.750160,-9.753278
69.097094,-0.852366,-0.738937,-9.521032
69.130419,-0.936316,-0.801787,-9.990762
69.163760,-0.897259,-0.733999,-9.707637
69.197098,-0.819295,-0.653640,-9.914893
69.230436,-0.709308,-0.674141,-9.732179
69.263765,-0.664864,-0.708110,-10.048674
69.296928,-0.587199,-0.709158,-9.863266
69.330421,-0.574928,-0.528988,-9.512054
69.363792,-0.585403,-0.473470,-9.404461
69.397128,-0.652443,-0.546795,-9.617851
69.430113,-0.678780,-0.719184,-9.841717
69.463814,-0.693296,-0.662469,-9.696414
69.497129,-0.600667,-0.556672,-9.847703
69.530454,-0.683270,-0.419300,-10.393301
69.563040,-0.775001,-0.397003,-9.905765
69.597245,-0.767968,-0.382936,-9.814632
69.630124,-0.826328,-0.365578,-10.033709
69.663883,-0.747317,-0.374706,-9.137198
69.697174,-0.736992,-0.546346,-9.087667
69.730443,-0.794155,-0.726816,-9.578795
69.763846,-0.738488,-0.502800,-9.751932
69.797500,-0.665163,-0.384882,-9.618151
69.830516,-0.523301,-0.527791,-9.653915
69.863396,-0.527491,-0.616230,-10.039545
69.897151,-0.565351,-0.625358,-9.675614
69.930434,-0.648253,-0.807174,-10.390308
69.963341,-0.653790,-0.684766,-9.737715
69.997107,-0.617876,-0.551584,-9.657507
70.030485,-0.642716,-0.713348,-9.579244
70.063861,-0.658429,-0.959960,-9.547519
70.097215,-0.635234,-1.025353,-9.914743
70.130275,-0.638526,-0.746419,-9.916838
70.163860,-0.615332,-0.602612,-9.906213
70.197173,-0.543653,-0.639275,-9.430349
70.230621,-0.559365,-0.895463,-9.947964
70.263787,-0.668904,-0.989439,-10.114516
70.297313,-0.686113,-0.837851,-10.382377
70.330475,-0.667707,-0.555026,-9.702100
70.363919,-0.580615,-0.432169,-9.418527
70.397177,-0.647954,-0.757493,-9.712875
70.430222,-0.645410,-0.836354,-9.619198
70.462866,-0.589892,-0.741930,-9.784105
70.497172,-0.587349,-0.486789,-9.982831
70.530167,-0.497712,-0.344328,-9.396380
70.563831,-0.420946,-0.578220,-9.513850
70.597173,-0.456261,-0.701975,-9.600044
70.630099,-0.539164,-0.637928,-10.016949
70.663902,-0.566548,-0.445936,-9.560239
70.696947,-0.598871,-0.370666,-9.351637
70.730503,-0.673693,-0.435910,-9.820318
70.763901,-0.736992,-0.551285,-9.582536
70.796619,-0.663966,-0.596477,-9.454292
70.830500,-0.623562,-0.514772,-9.979838
70.863809,-0.607550,-0.420646,-10.020840
70.896344,-0.510731,-0.473021,-9.441572
70.930578,-0.432767,-0.679229,-9.662445
70.963813,-0.477960,-0.741630,-10.232585
70.997128,-0.470777,-0.564603,-9.675165
71.030539,-0.441746,-0.546346,-9.447857
71.072807,-0.546197,-0.720830,-9.713324
71.097105,-0.599769,-0.805678,-9.867905
71.130515,-0.617726,-0.808820,-9.862817
71.163920,-0.675788,-0.684766,-9.663493
71.197191,-0.645260,-0.731305,-9.939285
71.230466,-0.633439,-0.874364,-9.598248
71.263841,-0.610244,-1.026401,-9.688184
71.297172,-0.591090,-1.108555,-9.660051
71.330308,-0.598871,-0.869426,-9.960683
71.363870,-0.605605,-0.708859,-9.857579
71.396987,-0.606503,-0.715293,-9.839473
71.430032,-0.632690,-0.829321,-10.078153
71.464001,-0.664864,-0.884539,-9.767644
71.496855,-0.653341,-0.793257,-9.769739
71.530512,-0.655735,-0.722327,-10.021887
71.563898,-0.580764,-0.673992,-10.044184
71.596651,-0.489931,-0.782333,-9.290882
71.630507,-0.480055,-0.923447,-9.612165
71.663839,-0.526594,-0.944995,-9.816428
71.697026,-0.619522,-0.665013,-10.028771
71.730528,-0.627752,-0.467634,-9.521182
71.763861,-0.597075,-0.507439,-9.512952
71.796150,-0.643016,-0.582560,-9.791737
71.830505,-0.643764,-0.779939,-9.865361
71.863874,-0.613985,-0.784129,-9.925218
71.897128,-0.601714,-0.388174,-9.823012
71.930532,-0.555475,-0.337295,-9.752829
71.963927,-0.523152,-0.435461,-9.498287
71.997174,-0.499658,-0.688806,-9.810442
72.030530,-0.533028,-0.693595,-9.652718
72.063371,-0.494869,-0.568793,-9.500681
72.096465,-0.592586,-0.376352,-9.577897
72.130479,-0.615631,-0.345526,-9.804606
72.168996,-0.636581,-0.448031,-9.542731
72.197146,-0.623413,-0.582111,-9.508612
72.230468,-0.528090,-0.501454,-9.915491
72.263860,-0.497563,-0.502950,-9.862518
72.297191,-0.445786,-0.650648,-9.756720
72.330188,-0.458356,-0.703920,-9.396530
72.363741,-0.440998,-0.890376,-10.182454
72.397083,-0.496515,-0.654389,-9.744150
72.430410,-0.492924,-0.757642,-9.979538
72.463755,-0.476762,-0.819145,-9.355527
72.497086,-0.573132,-0.655137,-9.707787
72.530544,-0.614584,-0.835606,-9.817026
72.564097,-0.617277,-0.864038,-9.679355
72.596218,-0.604857,-0.795502,-9.895289
72.630489,-0.518812,-0.695840,-9.726492
72.663839,-0.493522,-0.803882,-9.657058
72.697396,-0.508636,-1.109453,-9.805204
72.730521,-0.478109,-1.049745,-9.988367
72.763828,-0.441746,-0.919406,-9.694020
72.796704,-0.375155,-0.857304,-10.100151
72.830631,-0.397003,-0.781136,-9.630122
72.863813,-0.374107,-0.790713,-9.617851
72.896629,-0.394459,-0.903095,-10.117509
72.930536,-0.410620,-0.806426,-9.641794
72.963787,-0.376053,-0.848924,-9.687585
72.996626,-0.371713,-0.737440,-9.877332
73.030494,-0.370067,-0.628650,-9.680253
73.063802,-0.282825,-0.709457,-9.459978
73.096854,-0.300184,-0.869276,-10.023982
73.129491,-0.348668,-0.710505,-9.704046
73.162806,-0.263222,-0.654389,-9.525821
73.197073,-0.219526,-0.695091,-9.748041
73.230407,-0.354055,-0.592586,-10.053612
73.263736,-0.307666,-0.594082,-9.529712
73.297072,-0.258284,-0.707512,-9.497987
73.330411,-0.277887,-0.710355,-9.732179
73.362961,-0.265616,-0.642118,-9.741606
73.397096,-0.118368,-0.520608,-9.580291
73.430430,-0.103553,-0.595429,-9.673369
73.463833,-0.156227,-0.718286,-9.825406
73.497095,-0.185258,-0.712600,-9.651671
73.530484,-0.235688,-0.824982,-10.021588
73.563962,-0.303775,-0.790863,-9.837378
73.597107,-0.334302,-0.652144,-9.736967
73.630479,-0.353157,-0.643315,-9.701203
73.663788,-0.352259,-0.709308,-9.632516
73.696935,-0.354354,-0.759288,-9.577598
73.730460,-0.330262,-0.705716,-9.724846
73.763798,-0.271153,-0.538565,-9.811639
73.797131,-0.232096,-0.777545,-9.832140
73.830566,-0.219975,-0.753303,-9.631768
73.863836,-0.211894,-0.800290,-9.985225
73.897156,-0.158173,-0.840395,-9.601391
73.930477,-0.130638,-0.804032,-9.629224
73.963930,-0.279084,-0.723075,-9.561436
73.996480,-0.314699,-0.697186,-9.553505
74.030503,-0.330412,-0.844884,-9.623688
74.063833,-0.294198,-0.942152,-10.057951
74.097171,-0.264120,-0.757044,-9.890950
74.130504,-0.180320,-0.719184,-9.792186
74.163831,-0.274894,-0.888879,-9.985524
74.197085,-0.347321,-0.902347,-10.198765
74.230463,-0.308115,-0.770212,-10.111075
74.263770,-0.220424,-0.660374,-9.728737
74.297128,-0.125550,-0.664564,-9.592113
74.330488,-0.186754,-0.748514,-9.606329
74.363274,-0.255441,-0.689106,-9.777072
74.397119,-0.324576,-0.537218,-9.873741
74.430462,-0.262773,-0.484245,-9.407154
74.463886,-0.173735,-0.524499,-10.013208
74.497202,-0.183163,-0.446385,-9.858777
74.530513,-0.138869,-0.577173,-9.599445
74.563861,-0.158921,-0.650797,-9.943175
74.597173,-0.200671,-0.594681,-10.193528
74.630216,-0.177477,-0.550387,-9.446510
74.663867,-0.128543,-0.504746,-9.310335
74.697258,-0.166253,-0.553529,-9.666934
74.730364,-0.314250,-0.515221,-9.709283
74.763838,-0.283873,-0.567446,-9.985075
74.796856,-0.283124,-0.538565,-9.386204
74.830505,-0.211595,-0.548890,-9.540187
74.863743,-0.131985,-0.539762,-10.036253
74.897095,-0.202766,-0.690602,-9.914593
74.930489,-0.191244,-0.794903,-9.269782
74.963506,-0.204562,-0.662469,-9.884515
74.997296,-0.242721,-0.617726,-10.051367
75.030511,-0.173287,-0.720980,-9.691027
75.063858,-0.155329,-0.899204,-9.473745
75.097189,-0.341036,-0.785925,-9.854437
75.130271,-0.352259,-0.783680,-9.978790
75.163864,-0.290457,-0.789367,-9.900228
75.196455,-0.222519,-0.776647,-9.793383
75.230462,-0.207704,-0.875262,-9.692224
75.263816,-0.218479,-0.906088,-10.039994
75.297064,-0.360789,-0.973727,-9.805953
75.330591,-0.364081,-0.903095,-10.046279
75.363836,-0.298987,-0.686113,-9.875537
75.396480,-0.231498,-0.718286,-9.518788
75.430426,-0.200222,-0.832015,-9.509211
75.463797,-0.314400,-0.932425,-9.952902
75.497083,-0.342383,-0.836205,-9.958738
75.530421,-0.302728,-0.621766,-9.635659
75.563846,-0.297341,-0.536919,-9.639849
75.597147,-0.231348,-0.645410,-9.942128
75.630331,-0.206208,-0.782034,-9.622341
75.663811,-0.174633,-0.797148,-9.625034
75.697164,-0.244217,-0.707661,-9.742654
75.730564,-0.243768,-0.443691,-9.659602
75.763861,-0.270854,-0.434114,-9.710032
75.797141,-0.338492,-0.549040,-9.682497
75.830468,-0.312454,-0.565052,-9.679804
75.864177,-0.327269,-0.486190,-9.744000
75.896709,-0.308713,-0.448630,-9.721704
75.930206,-0.232844,-0.482299,-9.558892
75.963834,-0.194985,-0.524499,-9.569517
75.997129,-0.209201,-0.592436,-9.641046
76.030497,-0.222220,-0.528389,-9.820618
76.063839,-0.166253,-0.593484,-9.513550
76.097068,-0.190495,-0.607251,-9.699856
76.130550,-0.252597,-0.547693,-10.143398
76.163895,-0.349416,-0.633139,-9.623688
76.197129,-0.356150,-0.727714,-9.712875
76.230505,-0.366176,-0.682222,-10.044035
76.263812,-0.354654,-0.595579,-9.811190
76.297126,-0.238232,-0.683719,-9.366900
76.330507,-0.236585,-0.711253,-9.583733
76.363839,-0.336846,-0.752554,-9.886909
76.397129,-0.315148,-0.815255,-9.774079
76.430524,-0.251699,-0.868677,-9.768692
76.463539,-0.285968,-0.732802,-9.895888
76.497126,-0.280730,-0.762580,-9.781860
76.530460,-0.297939,-0.831715,-9.812986
76.563004,-0.351212,-0.784129,-9.600194
76.597114,-0.350314,-0.784578,-9.641794
76.630432,-0.331758,-0.736842,-9.668880
76.663806,-0.290008,-0.701227,-9.734423
76.697129,-0.253944,-0.672944,-9.887059
76.730471,-0.273398,-0.625508,-10.094464
76.763791,-0.286267,-0.798794,-9.650773
76.797658,-0.285968,-0.931827,-9.508911
76.830535,-0.295844,-0.864936,-9.808497
76.863936,-0.307666,-0.607101,-10.153274
76.897146,-0.278934,-0.575676,-9.750734
76.930444,-0.259032,-0.570738,-9.170120
76.963761,-0.224614,-0.644512,-10.075160
76.997165,-0.237184,-0.588396,-9.909356
77.030124,-0.150690,-0.618774,-9.349841
77.063766,-0.167301,-0.727863,-9.982681
77.097322,-0.275044,-0.500705,-9.793233
77.130458,-0.264120,-0.383535,-9.745497
77.163695,-0.266963,-0.604558,-9.727091
77.197197,-0.251550,-0.607101,-9.538541
77.230801,-0.244068,-0.622066,-9.505320
77.263833,-0.216982,-0.564603,-9.660949
77.297181,-0.256488,-0.654538,-9.809694
77.330173,-0.272201,-0.662469,-9.683395
77.363836,-0.300932,-0.527641,-9.868952
77.397138,-0.291056,-0.611890,-9.667832
77.430063,-0.253645,-0.703771,-9.717663
77.463838,-0.246462,-0.774552,-9.735770
77.496938,-0.308564,-0.727115,-9.928510
77.530661,-0.346872,-0.696289,-9.727540
77.563627,-0.334751,-0.732353,-9.880624
77.597200,-0.325024,-0.766022,-9.822563
77.630504,-0.253346,-0.782633,-9.570564
77.667870,-0.253346,-0.835906,-9.897085
77.697193,-0.284022,-0.808670,-10.120951
77.730435,-0.318739,-0.688358,-9.917586
77.763104,-0.318141,-0.711552,-9.792784
77.797141,-0.351960,-0.726965,-9.714970
77.830596,-0.355103,-0.766022,-9.857430
77.863835,-0.316944,-0.728761,-9.718112
77.897134,-0.302578,-0.640023,-9.592412
77.930504,-0.195284,-0.559665,-9.616205
77.963901,-0.174184,-0.579717,-9.762556
77.996658,-0.156377,-0.626854,-9.734872
78.030463,-0.141562,-0.686562,-9.872843
78.063858,-0.182564,-0.566847,-9.680253
78.097194,-0.226859,-0.537966,-9.532405
78.130458,-0.370965,-0.636581,-9.833188
78.163815,-0.376053,-0.669951,-9.852192
78.197131,-0.368122,-0.553978,-9.494546
78.230515,-0.358694,-0.469430,-9.746395
78.263833,-0.366625,-0.484095,-9.864762
78.297256,-0.348219,-0.432169,-9.863864
78.330484,-0.225063,-0.365877,-9.781112
78.363839,-0.186305,-0.433665,-9.719160
78.396906,-0.142909,-0.466736,-9.800266
78.430510,-0.119415,-0.473919,-9.955745
78.463625,-0.138420,-0.395806,-9.736069
78.497090,-0.158622,-0.425585,-9.502477
78.530534,-0.237334,-0.362136,-9.970261
78.563022,-0.329813,-0.431421,-9.852941
78.597408,-0.351362,-0.459254,-9.595106
78.630465,-0.367224,-0.536320,-9.980586
78.663897,-0.300782,-0.458955,-9.598847
78.697262,-0.255141,-0.461798,-9.619198
78.738291,-0.231647,-0.528389,-9.899779
78.763796,-0.220873,-0.570289,-9.694618
78.797147,-0.152486,-0.598123,-9.674566
78.829865,-0.162363,-0.580166,-9.587923
78.863037,-0.207405,-0.726965,-10.108680
78.896927,-0.248856,-0.654239,-9.921776
78.930548,-0.251550,-0.596177,-9.809694
78.963846,-0.278186,-0.665462,-9.548866
78.997161,-0.319637,-0.721878,-9.939434
79.030506,-0.332656,-0.734897,-9.812387
79.063841,-0.321134,-0.693595,-9.642842
79.097231,-0.281628,-0.668754,-9.808197
79.130510,-0.262174,-0.640921,-9.801763
79.163244,-0.239279,-0.714395,-9.507714
79.197194,-0.222818,-0.786224,-9.612913
79.230448,-0.288063,-0.746120,-10.131426
79.263752,-0.222968,-0.679080,-9.836181
79.297096,-0.267412,-0.665462,-9.626082
79.330451,-0.322630,-0.623113,-9.902023
79.363760,-0.352259,-0.600517,-9.777670
79.397098,-0.321732,-0.674141,-9.672621
79.430439,-0.297041,-0.663666,-9.691925
79.462905,-0.291056,-0.588546,-9.648678
79.497097,-0.284172,-0.622964,-9.669329
79.530407,-0.281628,-0.655286,-9.908009
79.563538,-0.272051,-0.590790,-9.865810
79.596406,-0.216384,-0.457458,-9.755373
79.630432,-0.217730,-0.461798,-9.665139
79.663834,-0.236885,-0.560562,-9.756720
79.696341,-0.237783,-0.689854,-9.745347
79.730510,-0.307067,-0.634636,-9.595106
79.763753,-0.339390,-0.508786,-9.730383
79.797115,-0.341485,-0.448181,-9.959486
79.829615,-0.317243,-0.440100,-9.858627
79.863878,-0.254243,-0.527192,-9.770637
79.896471,-0.274744,-0.622066,-9.795328
79.930437,-0.263970,-0.646158,-9.652269
79.963761,-0.164757,-0.678331,-9.645386
79.997099,-0.165655,-0.640023,-9.876734
80.029516,-0.209650,-0.469729,-9.657507
80.063842,-0.245564,-0.461499,-9.537792
80.097200,-0.294048,-0.568494,-9.705991
80.130429,-0.342233,-0.682970,-10.257425
80.163815,-0.288811,-0.555774,-9.728438
80.196271,-0.243319,-0.543354,-9.661248
80.230417,-0.309761,-0.564752,-10.025928
80.263788,-0.351362,-0.577921,-10.138759
80.296291,-0.255889,-0.470477,-9.593460
80.329670,-0.203065,-0.436658,-9.719010
80.363653,-0.278635,-0.379046,-10.068576
80.397180,-0.293450,-0.366176,-9.667084
80.430416,-0.271153,-0.343431,-9.553206
80.463765,-0.292552,-0.347770,-9.727689
80.497161,-0.265018,-0.357497,-9.597949
80.530419,-0.203215,-0.376352,-9.633115
80.563918,-0.263372,-0.354504,-9.811938
80.596264,-0.235388,-0.357647,-9.821067
80.630428,-0.199773,-0.348518,-9.696264
80.663751,-0.280281,-0.360490,-9.712575
80.697104,-0.293899,-0.361986,-9.748789
80.730528,-0.275343,-0.351960,-9.964425
80.763757,-0.247360,-0.332956,-10.053312
80.797185,-0.284022,-0.315298,-9.574605
80.830421,-0.292702,-0.345077,-9.645535
80.863512,-0.329214,-0.462397,-10.108531
80.896833,-0.294946,-0.430373,-9.964125
80.930413,-0.164757,-0.342682,-9.368397
80.963777,-0.149643,-0.341186,-9.691177
80.997176,-0.274445,-0.340887,-10.055557
81.030429,-0.193039,-0.357647,-9.563681
81.063781,-0.167450,-0.361238,-9.679504
81.097094,-0.267412,-0.339241,-10.173476
81.130408,-0.286267,-0.432917,-9.832888
81.163762,-0.265317,-0.545299,-9.573108
81.197110,-0.305571,-0.694643,-9.655711
81.230451,-0.266215,-0.645709,-9.898432
81.263771,-0.305870,-0.383685,-9.668730
81.297127,-0.312754,-0.389970,-9.918484
81.330490,-0.327419,-0.341784,-9.890351
81.363410,-0.184360,-0.357048,-9.425560
81.397170,-0.122109,-0.496366,-9.889753
81.430645,-0.213989,-0.635833,-9.848002
81.462926,-0.075420,-0.606054,-9.301357
81.497222,-0.057463,-0.608897,-9.548118
81.530564,-0.210847,-0.459254,-9.857430
81.563791,-0.231797,-0.363183,-9.933448
81.597227,-0.291504,-0.325922,-10.167340
81.630978,-0.256189,-0.327269,-9.843513
81.663840,-0.144106,-0.387276,-9.563381
81.697172,-0.155479,-0.528389,-9.729335
81.730216,-0.224315,-0.558617,-9.879128
81.763838,-0.243319,-0.345376,-9.975348
81.797160,-0.277288,-0.277588,-10.316684
81.830029,-0.291205,-0.134978,-9.781262
81.863928,-0.180170,-0.338941,-9.097094
81.897275,-0.179123,-0.457608,-9.617103
81.930646,-0.338642,-0.561311,-10.034158
81.963836,-0.273398,-0.413463,-9.642393
81.997125,-0.109539,-0.290008,-9.747442
82.030511,-0.118517,-0.247509,-10.351551
82.066803,-0.154282,-0.311856,-9.926415
82.097351,-0.083052,-0.462995,-9.778867
82.130468,-0.176130,-0.358844,-10.133222
82.163816,-0.176878,-0.280581,-9.513700
82.196425,-0.136774,-0.288961,-9.405658
82.230502,-0.236585,-0.298687,-9.660949
82.263838,-0.335350,-0.332956,-9.623388
82.297167,-0.251550,-0.337445,-9.950957
82.330492,-0.238830,-0.329663,-10.154471
82.363836,-0.169396,-0.279234,-10.174523
82.397179,0.005686,-0.340288,-9.582386
82.430502,-0.039057,-0.428428,-9.655113
82.463832,-0.058061,-0.599021,-9.823461
82.496796,-0.158921,-0.524499,-9.750585
82.530534,-0.234191,-0.357048,-9.721255
82.563752,-0.244966,-0.362735,-9.777371
82.597104,-0.149643,-0.516268,-9.955895
82.630517,-0.150092,-0.643914,-10.250841
82.663815,-0.239578,-0.808670,-10.013956
82.697124,-0.102356,-0.568793,-9.581339
82.729612,-0.057164,-0.541707,-9.953052
82.763759,-0.122857,-0.447582,-9.656609
82.797082,-0.145752,-0.431720,-10.172428
82.830444,-0.198427,-0.325024,-9.747891
82.863786,-0.195434,-0.055667,-10.183352
82.897102,-0.217132,-0.184659,-9.307642
82.930456,-0.132733,-0.336697,-9.503075
82.963793,-0.073624,-0.341036,-10.403028
82.997274,-0.191842,-0.210548,-9.672172
83.030796,0.023494,-0.074971,-10.001237
83.063811,-0.019903,0.054620,-9.832439
83.097167,-0.155778,0.103703,-9.385606
83.135884,-0.250652,-0.241524,-9.883019
83.162920,-0.298238,-0.332656,-9.809245
83.197126,-0.238232,-0.336098,-9.540037
83.230590,-0.123306,-0.330861,-9.544826
83.263834,0.007632,-0.362884,-10.151179
83.297827,-0.150092,-0.550087,-9.535548
83.330511,-0.147249,-0.626106,-9.733226
83.363855,-0.097866,-0.733250,-10.571077
83.397147,-0.149194,-0.500256,-10.182005
83.430358,-0.117320,-0.464791,-8.823547
83.463751,-0.140066,-0.625358,-9.783806
83.497076,-0.200372,-0.823036,-10.431161
83.530421,-0.265167,-0.957865,-9.356725
83.563758,-0.129740,-0.718137,-9.520733
83.597109,-0.342533,-0.277737,-10.594421
83.630469,-0.361837,0.098315,-10.539053
83.663756,-0.085596,0.164757,-9.562783
83.696591,0.101608,-0.109239,-8.850482
83.730492,0.000000,-0.232246,-9.018681
83.763881,-0.157275,-0.341485,-10.127086
83.797128,-0.016461,-0.287913,-9.970111
83.830481,0.001048,-0.006734,-9.796525
83.863792,-0.038309,0.669203,-9.959786
83.897126,-0.117021,0.663517,-9.717065
83.929951,-0.138420,0.228954,-8.921114
83.963549,-0.084399,-0.277887,-9.585080
83.997169,-0.113130,-0.313203,-10.080996
84.030313,-0.129142,-0.203365,-10.290347
84.063797,-0.095921,0.358096,-9.361214
84.097175,0.005387,0.177028,-9.486914
84.130347,-0.030228,-0.096969,-10.016351
84.163797,-0.143508,-0.347770,-10.088927
84.197182,-0.012420,-0.378447,-9.948862
84.232449,-0.035465,-0.361238,-9.556648
84.263771,-0.206657,-0.433965,-9.616355
84.297154,-0.170443,-0.338193,-9.827501
84.330455,-0.132584,-0.323229,-10.124094
84.363146,-0.149942,-0.346423,-9.683994
84.397169,-0.141263,-0.565501,-9.256314
84.430454,-0.201270,-0.606802,-10.086683
84.463901,-0.211296,-0.653341,-10.018595
84.497218,-0.192890,-0.909231,-9.939883
84.530701,-0.196032,-0.647655,-10.559704
84.563934,-0.233593,-0.335649,-10.229891
84.597170,-0.181816,0.021698,-9.448306
84.630503,-0.195583,-0.341186,-9.287440
84.664401,-0.221172,-0.424986,-9.253770
84.697173,-0.177776,-0.547095,-9.972356
84.729500,-0.125700,-0.346124,-11.315551
84.763405,-0.149344,0.332956,-9.271727
84.797134,-0.064945,0.469430,-8.750222
84.831432,0.030378,0.242721,-9.358371
84.863213,-0.178374,-0.250951,-9.917137
84.896400,-0.235388,-0.306020,-9.204089
84.930355,-0.086045,-0.243020,-9.790988
84.963880,-0.187952,0.125550,-10.522593
84.996807,-0.245863,0.452071,-9.771834
85.030504,-0.077814,0.710654,-9.671873
85.063834,-0.092180,0.417354,-9.307342
85.096343,-0.081106,-0.293599,-9.658554
85.130586,-0.095173,-0.343131,-10.291544
85.163842,-0.161315,-0.158472,-10.272090
85.197126,-0.177028,0.149194,-9.692074
85.230506,-0.165954,0.035615,-9.704944
85.263422,-0.229552,-0.324875,-10.357237
85.297126,-0.272799,-0.383834,-9.872544
85.330504,-0.165056,-0.498311,-9.656310
85.370289,-0.180320,-0.527342,-9.860423
85.397142,-0.206657,-0.468233,-9.917437
85.430597,-0.156078,-0.357497,-9.864912
85.463766,-0.192590,-0.370965,-9.802062
85.496685,-0.228205,-0.375155,-9.823012
85.530503,-0.109988,-0.418102,-9.858777
85.563793,-0.114776,-0.460601,-9.733825
85.597128,-0.154731,-0.408974,-9.453544
85.630504,-0.151888,-0.366027,-9.583883
85.663978,-0.151289,-0.352708,-9.694618
85.697085,-0.263072,-0.332956,-9.849050
85.730395,-0.301231,-0.308264,-9.653018
85.763173,-0.269806,-0.284322,-9.888107
85.797075,-0.249006,-0.269657,-9.908159
85.830417,-0.214139,-0.237783,-9.675464
85.863747,-0.180619,-0.185857,-9.710480
85.896356,-0.132883,-0.154282,-9.811340
85.930426,-0.036064,-0.150541,-9.824957
85.963762,-0.037560,-0.186904,-9.873292
85.997112,-0.115075,-0.140515,-9.758965
86.030513,-0.140664,-0.087840,-9.946916
86.063796,-0.161165,-0.114028,-10.066930
86.097136,-0.234490,0.038159,-9.434090
86.130461,-0.176878,-0.057912,-9.579244
86.164379,-0.174184,-0.152337,-9.857579
86.196698,-0.155329,-0.138569,-9.842017
86.230467,-0.144705,-0.097567,-9.736518
86.263833,-0.118966,-0.055817,-9.833038
86.296439,-0.101009,-0.190495,-9.982382
86.330706,-0.117769,-0.216683,-9.573557
86.363803,-0.092030,-0.218778,-9.913097
86.397171,-0.161914,-0.256937,-9.973403
86.430500,-0.136474,-0.035016,-9.908308
86.469633,-0.120612,0.140964,-9.859375
86.497135,-0.166852,0.109688,-9.798471
86.530717,-0.203963,0.081406,-9.543479
86.563879,-0.140664,0.084249,-9.604982
86.597168,-0.128693,-0.045043,-10.025479
86.630504,-0.211146,0.041750,-9.661398
86.663524,-0.152935,0.073175,-9.631020
86.697169,-0.210099,0.013019,-9.816577
86.730511,-0.213840,0.000299,-9.813435
86.763776,-0.155928,-0.043845,-9.547968
86.797172,-0.110287,-0.154581,-9.649875
86.830603,-0.093676,-0.107743,-9.749986
86.863650,-0.082304,-0.065394,-9.785452
86.897177,-0.135577,-0.058361,-9.967866
86.930514,-0.165655,-0.091432,-9.822114
86.963607,-0.167899,-0.108641,-9.650324
86.997175,-0.181068,-0.189149,-9.678457
87.030510,-0.198875,-0.271303,-9.829147
87.063515,-0.162063,-0.228804,-9.710630
87.097427,-0.142909,-0.170144,-9.683096
87.131432,-0.166852,-0.165505,-9.744449
87.163835,-0.151289,-0.232844,-9.830195
87.197170,-0.140215,-0.252148,-10.014854
87.229968,-0.129890,-0.223118,-10.057353
87.264530,-0.176878,-0.149793,-9.662595
87.296949,-0.135876,-0.186754,-9.772732
87.330320,-0.184061,-0.310958,-9.917437
87.363839,-0.214139,-0.301680,-9.789791
87.397172,-0.179871,-0.222669,-9.718412
87.430816,-0.209051,-0.193638,-9.823311
87.464427,-0.167899,-0.226110,-9.899180
87.497125,-0.060905,-0.212343,-9.729485
87.530511,-0.084249,-0.253645,-10.042239
87.570759,-0.150990,-0.257087,-9.950807
87.597137,-0.162063,-0.180170,-9.720507
87.630513,-0.175830,-0.085446,-9.736219
87.663883,-0.242721,-0.032323,-9.744449
87.697151,-0.208004,0.034119,-9.787996
87.730845,-0.126897,0.119415,-9.714371
87.763880,-0.109389,0.082902,-9.825257
87.797169,-0.093527,0.093676,-9.776174
87.830508,-0.118368,0.100261,-9.633414
87.864632,-0.102356,0.055368,-9.793083
87.897172,-0.077515,-0.054021,-9.839024
87.930512,-0.061952,0.005387,-9.613512
87.963815,-0.042050,0.043097,-9.426458
87.997169,-0.078862,-0.094125,-9.669179
88.031434,-0.193488,-0.117619,-9.801014
88.063716,-0.163560,-0.071380,-9.757468
88.096723,-0.120163,-0.082154,-9.919083
88.130507,-0.173137,-0.141263,-9.721554
88.163967,-0.118218,-0.180469,-9.642243
88.196980,-0.060605,-0.307816,-9.767794
88.230510,-0.053722,-0.328915,-9.855484
88.263693,-0.055817,-0.327119,-9.592412
88.297169,-0.079161,-0.316196,-9.968615
88.330476,-0.154581,-0.277588,-10.107782
88.363719,-0.149643,-0.261726,-9.906662
88.397292,-0.118068,-0.287464,-9.927762
88.430476,-0.188101,-0.332956,-9.830644
88.463922,-0.182115,-0.345675,-9.846656
88.497173,-0.182265,-0.343431,-9.940182
88.529976,-0.214887,-0.288811,-9.647930
88.563836,-0.168348,-0.250203,-9.688333
88.596828,-0.165206,-0.310210,-9.855634
88.637355,-0.182415,-0.335649,-9.702998
88.663817,-0.147398,-0.343131,-9.707338
88.697119,-0.125251,-0.312305,-9.638801
88.730504,-0.112531,-0.278934,-9.641645
88.764014,-0.108790,-0.204113,-9.727091
88.797174,-0.130339,-0.191393,-9.867456
88.830460,-0.188101,-0.227008,-9.366302
88.863838,-0.167600,-0.256189,-9.545724
88.897171,-0.227158,-0.310808,-10.286007
88.930642,-0.159370,-0.236735,-10.016650
88.963837,-0.104451,-0.136175,-9.977144
88.997173,-0.137821,-0.002394,-9.744449
89.030503,-0.126598,-0.089038,-9.792335
89.064073,-0.054171,-0.077066,-9.979538
89.097009,-0.066292,-0.135427,-10.043586
89.130504,-0.089636,-0.078114,-9.603037
89.163833,-0.072726,-0.005686,-9.561436
89.197206,-0.130938,-0.062401,-10.076208
89.230639,-0.144106,-0.079460,-9.627878
89.263868,-0.095921,-0.147249,-9.655262
89.297129,-0.205460,-0.039805,-9.727689
89.330461,-0.226859,0.051926,-9.560538
89.364403,-0.200970,-0.035316,-9.837527
89.396734,-0.225662,-0.216833,-10.034906
89.430506,-0.103553,-0.148595,-9.813435
89.463789,-0.044893,-0.125401,-9.802511
89.497132,-0.092928,-0.191693,-10.136813
89.530762,-0.077515,-0.095023,-9.864014
89.563775,-0.050280,-0.044594,-9.708086
89.597174,-0.100261,-0.050879,-9.795777
89.630504,-0.105648,-0.072876,-9.804007
89.663789,-0.079011,-0.073175,-9.433042
89.696833,-0.133482,-0.007183,-9.885263
89.730503,-0.195134,-0.024392,-10.334043
89.768553,-0.300633,0.156826,-9.252423
89.797230,-0.158023,-0.001796,-9.427805
89.830478,-0.270554,-0.154432,-9.438579
89.863800,-0.218479,-0.183462,-9.563980
89.897215,-0.108042,-0.189149,-9.641345
89.930416,-0.062700,-0.076318,-9.817774
89.963765,-0.089486,-0.015114,-10.023085
89.997101,-0.121360,0.106097,-9.419425
90.030433,-0.146650,-0.073026,-9.885114
90.063795,-0.297041,-0.294647,-10.291095
90.097124,-0.122707,-0.167450,-9.529113
90.130748,-0.049831,-0.159070,-9.584182
90.163953,-0.195883,-0.150690,-9.929258
90.197176,-0.157724,-0.134230,-10.059448
90.230507,-0.116721,-0.121360,-9.726642
90.263832,-0.115824,-0.192890,-9.555301
90.297548,-0.130638,-0.284172,-9.663792
90.330539,-0.172089,-0.328317,-9.839024
90.363837,-0.136774,-0.329214,-10.226300
90.397264,-0.180020,-0.309312,-9.839922
90.430627,-0.165355,-0.208004,-9.702849
90.463847,-0.178674,-0.295844,-9.689231
90.497335,-0.203963,-0.338343,-9.808946
90.530099,-0.142161,-0.337894,-9.954398
90.563842,-0.115375,-0.238082,-9.801314
90.597369,-0.102655,-0.131237,-9.785901
90.630513,-0.096220,-0.163260,-9.716466
90.663837,-0.102356,-0.306169,-9.852791
90.697171,-0.127645,-0.281778,-9.689530
90.730177,-0.123007,-0.258134,-9.634911
90.763793,-0.140215,-0.202766,-9.791886
90.797177,-0.184659,-0.157574,-9.615008
90.837435,-0.190495,-0.144106,-9.577897
90.863801,-0.198277,-0.159519,-9.871197
90.897696,-0.276839,-0.151439,-9.932850
90.930505,-0.124204,-0.150990,-9.746245
90.963827,-0.081406,-0.204861,-9.803858
90.997176,-0.078413,-0.263821,-9.986272
91.030693,-0.080508,-0.256488,-9.821815
91.065078,-0.107444,-0.146800,-9.923273
91.097137,-0.138569,-0.055069,-9.971458
91.130503,-0.129441,0.019005,-9.790091
91.163646,-0.133033,-0.131536,-9.885862
91.198039,-0.134828,-0.153833,-10.008719
91.230508,-0.132135,-0.152037,-9.917736
91.263870,-0.111933,-0.134080,-9.530610
91.297167,-0.120163,-0.174783,-9.776323
91.330503,-0.187203,-0.212643,-9.854287
91.363706,-0.104900,-0.219526,-9.392788
91.397519,-0.080658,-0.249754,-9.502177
91.430471,-0.166852,-0.198875,-9.717514
91.463837,-0.133332,-0.206807,-9.648379
91.497373,-0.041152,-0.318291,-10.008270
91.530169,-0.087691,-0.240776,-10.310998
91.563969,-0.093826,-0.100710,-9.901724
91.597177,-0.060605,-0.094574,-9.395781
91.630372,-0.172688,-0.201569,-9.940631
91.663975,-0.169994,-0.197828,-9.625633
91.697077,-0.154731,-0.157125,-9.330088
91.730505,-0.169994,-0.113579,-9.926266
91.763554,-0.210697,-0.064795,-10.275532
91.797118,-0.122857,-0.002245,-9.589868
91.830664,0.032622,-0.173885,-9.308240
91.863775,-0.155629,-0.281329,-10.196371
91.897133,-0.179721,-0.217132,-9.863565
91.930487,-0.006435,-0.052674,-9.253022
91.971881,-0.237034,-0.022596,-9.878978
91.997133,-0.287913,-0.037560,-10.232435
92.030460,-0.262474,-0.190645,-9.789791
92.063854,-0.270704,-0.287015,-9.860273
92.097140,-0.321433,-0.244068,-9.611566
92.130420,-0.263671,-0.264269,-9.716466
92.163768,-0.238681,-0.280581,-10.060645
92.197098,-0.232246,-0.232545,-10.263561
92.230436,-0.264569,-0.025140,-9.599146
92.263787,-0.245115,-0.184959,-9.921926
92.297373,-0.286866,-0.302279,-10.149982
92.330453,-0.311557,-0.318739,-9.843513
92.363524,-0.371713,-0.227158,-9.815829
92.402047,-0.392513,-0.189747,-9.779017
92.430745,-0.475266,-0.201270,-9.698359
92.464080,-0.460751,-0.257087,-9.668730
92.497319,-0.550087,-0.320236,-9.640298
92.530286,-0.547843,-0.325922,-9.976097
92.564319,-0.518363,-0.177177,-9.930156
92.597145,-0.456411,-0.077665,-9.575503
92.630484,-0.478857,-0.234939,-9.944223
92.663826,-0.644363,-0.337744,-9.887658
92.697205,-0.717388,-0.335200,-9.883318
92.730704,-0.717837,-0.208004,-9.961881
92.763771,-0.667557,-0.152187,-9.630272
92.797125,-0.635983,-0.050130,-9.441722
92.830488,-0.719334,0.000150,-9.869252
92.864405,-0.719783,0.015862,-9.832589
92.897132,-0.571187,-0.057463,-9.597650
92.930506,-0.509385,-0.077814,-9.466413
92.963790,-0.523451,-0.056715,-9.664390
92.997086,-0.547693,-0.026786,-9.902472
93.030499,-0.508636,0.062700,-9.774228
93.067733,-0.411219,-0.053423,-9.705542
93.097138,-0.444140,-0.161465,-9.769889
93.130459,-0.469131,-0.161165,-9.764352
93.164691,-0.526594,-0.106097,-9.800566
93.197733,-0.516867,0.000449,-9.999740
93.230454,-0.614135,0.070183,-9.480330
93.263904,-0.609496,0.020501,-9.695666
93.297378,-0.689405,-0.081256,-9.622939
93.330737,-0.698384,-0.157574,-9.811190
93.363817,-0.655586,-0.202766,-9.822413
93.397030,-0.595130,-0.212942,-9.681150
93.430439,-0.440549,-0.188251,-9.900228
93.464058,-0.441297,-0.138270,-9.982082
93.496759,-0.376651,-0.102954,-10.077854
93.530465,-0.392065,-0.084099,-9.534500
93.563839,-0.414062,-0.146650,-9.731730
93.597433,-0.589892,-0.169097,-9.845907
93.630841,-0.674291,-0.167750,-9.514149
93.663647,-0.712749,-0.145154,-9.465964
93.697351,-0.745970,-0.084997,-9.699108
93.730741,-0.690303,-0.062700,-9.502776
93.763653,-0.613536,-0.054470,-9.465365
93.797578,-0.520907,-0.110137,-10.041191
93.830437,-0.463743,-0.091282,-10.099402
93.863289,-0.438304,-0.031425,-9.768392
93.897584,-0.406879,-0.111484,-9.661248
93.930593,-0.452071,-0.217132,-9.934646
93.963932,-0.467185,-0.154282,-9.814183
93.997250,-0.417504,-0.163859,-9.484520
94.030270,-0.435311,-0.117021,-9.705093
94.063792,-0.506541,-0.118966,-10.338831
94.097468,-0.513724,-0.055966,-9.715568
94.135309,-0.510432,-0.168199,-9.859525
94.163798,-0.591987,-0.280730,-9.676362
94.197123,-0.605006,-0.315447,-9.575203
94.230466,-0.550237,-0.260079,-9.858926
94.263517,-0.518812,-0.107743,-9.397727
94.297219,-0.373509,-0.163111,-9.653616
94.330533,-0.352110,-0.228355,-9.991510
94.364335,-0.320236,-0.264569,-9.958588
94.397105,-0.346723,-0.307367,-10.078303
94.430457,-0.346872,-0.308414,-9.464916
94.463919,-0.348369,-0.284322,-9.809394
94.497265,-0.364381,-0.265766,-9.981633
94.531131,-0.362735,-0.330262,-9.811190
94.563778,-0.361837,-0.312903,-9.940332
94.596712,-0.359143,-0.221771,-9.460876
94.630494,-0.307217,-0.178973,-9.735471
94.663649,-0.356749,-0.300932,-9.927762
94.697266,-0.331758,-0.314549,-9.894691
94.730592,-0.225512,-0.265916,-9.663044
94.763827,-0.154581,-0.172389,-10.003930
94.797433,-0.153833,-0.138420,-9.835133
94.830730,-0.110885,-0.230151,-9.651671
94.863886,-0.123007,-0.237932,-9.816727
94.897183,-0.201120,-0.166852,-9.608723
94.930404,-0.169545,-0.197529,-9.933598
94.963811,-0.187353,-0.126598,-10.089376
94.997632,-0.182564,-0.008530,-9.525821
95.030505,-0.174035,-0.057164,-9.953501
95.064423,-0.236885,-0.048484,-9.815679
95.097214,-0.269956,-0.061054,-9.611716
95.130130,-0.196332,-0.156826,-9.727839
95.163928,-0.270255,-0.061204,-9.855335
95.197137,-0.257236,0.006584,-9.758217
95.230462,-0.256488,0.020351,-9.806851
95.263806,-0.270554,-0.002095,-9.854736
95.299691,-0.201120,-0.040404,-9.599894
95.330435,-0.167750,-0.095323,-9.893793
95.363792,-0.146800,-0.095921,-10.046728
95.397297,-0.152187,0.000599,-9.707787
95.430747,-0.088738,0.018855,-9.681001
95.463725,-0.130339,-0.032622,-9.874639
95.497125,-0.215187,-0.102805,-9.728587
95.530563,-0.232545,-0.048634,-9.775276
95.563963,-0.205460,0.007931,-9.842017
95.597526,-0.131835,0.003292,-9.746694
95.630548,-0.099363,-0.032323,-9.758965
95.663811,-0.075869,-0.061054,-9.780813
95.697415,-0.047138,-0.072427,-9.643889
95.730466,-0.073924,-0.102356,-9.712426
95.763870,-0.184659,-0.168498,-9.897235
95.797313,-0.215187,-0.109239,-9.746694
95.830374,-0.213540,-0.136325,-9.697312
95.863956,-0.164757,-0.178973,-9.873292
95.897418,-0.140215,-0.263072,-9.735920
95.930327,-0.194386,-0.317692,-9.780962
95.963922,-0.226859,-0.293151,-9.832589
95.997351,-0.330412,-0.217431,-9.759863
96.030905,-0.360191,-0.263821,-9.812387
96.063961,-0.363632,-0.248407,-10.020541
96.097193,-0.360340,-0.272051,-10.009467
96.130441,-0.375604,-0.273847,-9.953201
96.163996,-0.418851,-0.298987,-9.755224
96.197464,-0.583009,-0.322181,-10.264459
96.230465,-0.705566,-0.303326,-10.133371
96.263858,-0.653491,-0.176878,-9.571163
96.297649,-0.735046,-0.221023,-8.958674
96.330703,-0.837552,-0.339091,-9.769589
96.373665,-0.990636,-0.322630,-9.782908
96.397104,-1.003356,-0.286866,-9.533602
96.430351,-1.008444,-0.330412,-9.959786
96.463816,-1.011287,-0.322630,-9.836031
96.497285,-0.917910,-0.108192,-9.956793
96.530898,-0.801637,0.213092,-10.108231
96.563867,-0.659028,0.280431,-9.689530
96.597441,-0.494869,0.068237,-9.105175
96.630517,-0.428278,-0.043247,-9.060581
96.664380,-0.416456,-0.248108,-9.612913
96.697214,-0.511629,-0.212493,-10.166592
96.730464,-0.517166,-0.080209,-10.066182
96.763903,-0.447732,0.226260,-9.314825
96.797150,-0.435311,0.247210,-9.764202
96.830653,-0.439950,0.080209,-10.502092
96.864150,-0.453867,-0.057613,-9.443517
96.897128,-0.377998,-0.302728,-9.248084
96.930646,-0.468831,-0.281478,-9.484370
96.964261,-0.593484,-0.063748,-10.012610
96.997455,-0.574629,-0.017808,-10.432957
97.030468,-0.553829,0.125401,-9.703896
97.063789,-0.446834,-0.007781,-8.885050
97.097262,-0.440549,-0.260678,-9.820917
97.130496,-0.554128,-0.145603,-10.206098
97.164092,-0.766172,-0.276241,-10.606243
97.197207,-0.547693,-0.134978,-9.718561
97.230381,-0.379794,0.149044,-9.112358
97.264327,-0.379644,-0.002095,-9.650324
97.297500,-0.386079,-0.092928,-9.805803
97.330903,-0.558617,-0.437406,-10.523341
97.363917,-0.538415,-0.301381,-9.440824
97.397403,-0.428727,0.137522,-9.386653
97.430671,-0.372012,0.176429,-9.646882
97.466932,-0.445487,0.206208,-9.973104
97.497105,-0.514622,-0.076318,-9.492002
97.530470,-0.592436,-0.147548,-9.472099
97.563945,-0.546945,-0.264868,-9.496940
97.597501,-0.513425,-0.208303,-10.114367
97.630779,-0.556223,-0.040853,-9.565177
97.663938,-0.663367,-0.118966,-10.285109
97.697329,-0.630296,0.026337,-10.072467
97.730323,-0.489033,0.103403,-9.372138
97.764038,-0.396255,-0.032921,-9.561286
97.797613,-0.547244,-0.209949,-9.522828
97.830762,-0.591539,-0.322181,-10.143846
97.864499,-0.378447,-0.207555,-9.734274
97.896968,-0.646458,-0.149793,-9.586127
97.930806,-0.582111,-0.203664,-9.649127
97.963981,-0.356749,-0.318291,-9.805055
