time_tick,acc_X_value,acc_Y_value,acc_Z_value
0.025572,-0.340887,-0.171640,-9.921776
0.058804,-0.295994,-0.323827,-9.754775
0.092239,-0.439052,-0.236885,-9.825556
0.125559,-0.423190,-0.278785,-9.832888
0.159050,-0.366176,-0.249604,-9.808048
0.192251,-0.388922,-0.310060,-9.805055
0.224924,-0.447582,-0.304224,-9.753278
0.258891,-0.504147,-0.297041,-9.730383
0.291263,-0.258284,-0.262324,-9.830045
0.325735,-0.476762,-0.278785,-9.807299
0.358878,-0.291953,-0.213391,-9.745048
0.392226,-0.321134,-0.282077,-9.976546
0.424836,-0.445188,-0.239878,-9.899031
0.458875,-0.713647,-0.317542,-9.836330
0.492340,-0.901748,-0.322929,-9.928660
0.525546,-1.303240,-0.370666,-9.857729
0.558912,-1.448544,-0.313352,-9.669778
0.592291,-1.379109,-0.235089,-9.729485
0.625815,-1.654602,-0.307965,-9.837378
0.658880,-1.476527,-0.380841,-9.666037
0.692287,-1.428043,-0.332507,-9.672172
0.725018,-1.488349,-0.174933,-9.724996
0.758889,-1.287977,-0.213840,-9.697462
0.792785,-1.690217,-0.233293,-9.717214
0.825554,-1.651460,-0.065993,-9.863715
0.858881,-1.556736,-0.266963,-9.589270
0.892347,-1.473235,-0.257835,-9.546023
0.925641,-1.885202,-0.242422,-9.811340
0.958880,-1.431634,-0.072278,-9.733077
0.992276,-1.439266,-0.183612,-9.335026
1.025557,-0.484993,-0.215635,-9.932102
1.058921,-1.159583,-0.090684,-9.873442
1.092035,-1.042113,-0.303177,-9.851893
1.126049,-0.820343,-0.188101,-9.933748
1.158206,-0.860297,-0.339390,-9.915491
1.192287,-1.010539,-0.264120,-9.948712
1.225647,-1.107807,-0.193488,-9.641196
1.258884,-1.483111,0.013468,-9.880026
1.292675,-0.864188,-0.237783,-10.022187
1.325626,-0.742229,-0.317093,-9.768542
1.358877,-0.890675,-0.282227,-10.008569
1.392312,-0.798195,-0.328317,-9.896936
1.425557,-0.638526,-0.140814,-9.824508
1.458644,-0.922549,-0.138420,-9.782010
1.492015,-1.400957,-0.259481,-9.615906
1.525103,-1.206272,-0.185108,-9.746544
1.558900,-1.614348,-0.155479,-9.737117
1.592303,-0.916413,-0.576874,-9.958888
1.625892,-1.627666,0.218329,-9.839323
1.658915,-1.491491,-0.144705,-9.486764
1.692658,-0.432767,0.166403,-9.860722
1.725680,-0.685215,0.143657,-9.977443
1.758417,-1.734811,-0.140066,-9.563830
1.792294,-0.982406,-0.448630,-9.907860
1.825560,-1.127560,-0.190645,-9.782908
1.858881,-0.674291,0.003442,-9.975947
1.892278,-1.331074,-0.226859,-9.753877
1.925553,-1.004104,-0.188101,-10.196521
1.958906,-0.721728,-0.223417,-9.993904
1.992314,-1.345440,-0.381290,-9.729335
2.025529,-1.276454,-0.401941,-9.727390
2.058878,-1.458271,-0.210248,-9.832589
2.091980,-0.546496,0.264569,-9.771235
2.125460,-0.579417,-0.215037,-9.987320
2.158779,-0.552631,-0.275792,-9.990612
2.192154,-1.739899,-0.074821,-10.063039
2.224821,-1.044657,-0.090235,-10.041341
2.258832,-0.313502,-0.108491,-9.775575
2.292781,-0.119864,-0.185707,-9.842765
2.325506,-1.950297,-0.155479,-9.730383
2.358896,-1.250416,-0.143657,-9.762257
2.392282,-1.426247,0.174933,-10.013358
2.425653,-1.580978,0.179871,-10.027724
2.458877,-1.029693,-0.280730,-10.022785
2.492220,-0.976271,0.109838,-9.871197
2.525569,-1.105263,-0.126299,-9.480479
2.558901,-1.168562,-0.116871,-9.656759
2.592298,-1.765338,-0.154731,-9.908458
2.624800,0.010176,-0.288212,-9.914593
2.658996,0.033670,-0.353457,-10.214628
2.692304,1.322245,-0.561610,-9.721704
2.725547,0.983902,0.044743,-9.826603
2.758887,-1.827589,-0.262923,-10.255480
2.792230,-0.410620,-0.706764,-9.707039
2.825543,-0.571337,-0.238381,-10.023234
2.858044,-1.189811,-0.042798,-9.913247
2.892237,-1.316259,0.038309,-9.851893
2.925927,-0.420048,-0.151439,-9.555750
2.958857,-1.956432,0.143957,-9.858328
2.992276,-0.108341,-0.189598,-9.761509
3.025546,-0.863290,0.185557,-9.507714
3.059270,-0.358844,-0.054320,-9.795178
3.092272,-1.391679,-0.025439,-9.900527
3.125571,-0.981658,-0.343730,-9.737715
3.158876,-0.526145,-0.017059,-9.746544
3.192428,-0.325324,-0.187353,-9.892297
3.225802,-0.423938,-0.159819,-9.573707
3.258884,-0.285369,-0.170144,-10.064087
3.292278,-0.661422,-0.270106,-9.945570
3.325509,-0.459703,-0.250951,-9.777969
3.359072,-0.225961,-0.217730,-9.874489
3.392183,-0.098615,-0.218778,-9.715718
3.425548,-0.906238,-0.446684,-9.902323
3.458883,-0.238082,-0.475116,-9.953052
3.492167,0.008979,-0.207704,-9.781262
3.525552,-0.746120,-0.352708,-9.892596
3.558894,-0.388623,-0.393112,-9.752081
3.592155,-0.849673,-0.213092,-9.724397
3.625486,-0.831267,-0.049083,-10.028472
3.658113,-0.899953,0.051627,-9.777670
3.691910,-0.997520,-0.105648,-9.857879
3.724853,-0.423190,-0.378447,-9.933897
3.758158,-0.309911,-0.448181,-9.648828
3.791898,-0.777994,-0.061952,-9.724697
3.824822,-0.335350,-0.302129,-9.976845
3.858648,-0.516268,-0.137522,-9.682946
3.891901,-0.363632,-0.496515,-9.738464
3.924974,-0.435311,-0.302578,-9.933748
3.958801,-0.336098,-0.165954,-9.984177
3.991893,-0.419150,-0.299884,-9.771984
4.024861,-0.839198,-0.567296,-10.096859
4.058328,0.340438,-0.184360,-9.529861
4.091555,0.273547,-0.401492,-10.087281
4.125399,0.573282,-0.011523,-9.454142
4.158874,-1.394074,-0.605156,-9.959187
4.191946,-1.085061,0.265018,-9.317219
4.225471,-1.568258,-0.377848,-9.870000
4.258654,0.237932,0.317542,-9.668880
4.291902,-0.127945,0.047138,-9.751932
4.325454,-0.220574,-0.392962,-9.778718
4.358866,0.050430,-0.647355,-10.187243
4.391969,-0.995575,-0.305272,-9.746095
4.424781,-0.894266,-0.342682,-9.832888
4.458792,-0.372611,-0.161016,-9.811190
4.491902,-0.604109,-0.274146,-9.745647
4.525300,-0.334452,-0.193488,-9.574156
4.558831,-0.541857,0.052375,-9.731879
4.591318,-0.378896,-0.224913,-9.537643
4.625537,-0.391765,-0.222519,-9.648229
4.658823,-0.922848,-0.119116,-9.770787
4.691896,-0.814058,-0.173735,-9.544078
4.725469,0.129142,-0.282825,-9.591215
4.758790,0.226709,-0.325922,-9.749238
4.791905,-0.396703,-0.057912,-9.878978
4.825467,-0.243619,-0.149942,-9.558294
4.858879,-0.004489,0.128244,-10.049422
4.891888,0.384433,-0.255441,-9.835732
4.925440,-0.371414,-0.272350,-9.685191
4.958784,-0.479306,0.022446,-9.871197
4.991894,-0.817350,0.179272,-9.718112
5.025317,-0.455363,0.188400,-9.557246
5.058772,0.199624,-0.279683,-9.591814
5.091636,-0.303775,-0.095472,-9.583583
5.125455,-0.558168,-0.165655,-9.925817
5.158724,-0.195284,0.157275,-9.702998
5.191899,0.208752,-0.178674,-9.594657
5.225451,0.494570,-0.011523,-9.614410
5.258215,-0.534525,-0.316794,-9.673369
5.291355,-0.609945,-0.089337,-10.092669
5.325556,-0.534824,-0.176429,-9.939733
5.358166,0.082154,-0.250802,-9.821366
5.392205,-0.516418,-0.200970,-9.980736
5.424641,-0.716191,-0.368571,-9.770637
5.458798,-1.098529,-0.238681,-9.843663
5.491893,0.846381,-0.266813,-9.691177
5.525071,0.517615,-0.295694,-9.901874
5.558525,-0.621617,0.102954,-9.692972
5.591899,0.762132,-0.429475,-9.792934
5.624518,-0.138270,-0.393860,-10.108980
5.658879,-0.213840,-0.329214,-9.695367
5.691907,0.606503,-0.376053,-9.796076
5.725533,0.654239,-0.332806,-9.896187
5.758874,0.311257,-0.352110,-9.980287
5.791900,-1.038223,-0.410770,-10.442683
5.825454,-0.618474,-0.380243,-9.891099
5.858706,-0.390119,-0.421095,-10.121250
5.891970,0.210099,-0.347022,-10.004230
5.925468,0.447133,-0.385929,-9.815231
5.958790,0.479007,-0.346723,-9.827501
5.991518,-0.735046,-0.394010,-9.914893
6.025520,-0.771260,-0.417803,-9.720656
6.058293,-0.585403,-0.339390,-9.799817
6.091910,-0.493223,-0.351511,-9.477337
6.125469,-0.164308,-0.372312,-9.816727
6.158783,-0.379195,-0.313652,-9.618450
6.191905,-0.336397,-0.218628,-9.753129
6.225526,-0.335350,-0.363632,-9.732478
6.258864,-0.350913,-0.304673,-9.847254
6.291899,-0.313652,-0.224015,-9.893643
6.325467,-0.237184,0.092779,-9.951406
6.357841,-0.373958,0.021249,-10.246801
6.391963,-0.451473,-0.083351,-10.144295
6.425466,-0.665013,-0.118218,-9.811190
6.457887,-0.210847,-0.055667,-9.667084
6.492223,-0.646607,0.188849,-9.714371
6.524536,-0.644961,0.111484,-9.608723
6.558328,0.016760,-0.008530,-9.482425
6.591287,-0.109539,0.159370,-9.419126
6.625468,0.020800,-0.115075,-9.554553
6.658873,-0.518513,-0.047736,-9.560688
6.692031,-0.315148,0.347920,-9.947665
6.724590,-0.732951,0.303476,-9.888256
6.758805,-0.499508,0.054470,-9.988816
6.791257,-0.105498,0.081106,-9.756421
6.825414,-0.097418,0.094724,-9.805204
6.857959,0.033071,-0.053423,-9.465515
6.891983,-0.406730,0.257087,-9.824957
6.925531,-0.062850,-0.211296,-9.852342
6.958889,0.670700,0.049233,-9.588970
6.991965,-0.875711,0.203814,-9.467760
7.024906,-0.627303,-0.106396,-9.572360
7.058909,-0.382936,0.071529,-9.528515
7.091919,-0.130938,-0.154432,-9.305696
7.125472,-0.443242,-0.272500,-9.447558
7.158883,-0.639873,0.081406,-9.506218
7.191969,-0.237633,-0.014216,-9.730533
7.225378,-0.492924,0.133182,-9.761808
7.258871,-0.085596,-0.318889,-9.673519
7.291923,-0.649151,-0.087990,-9.798321
7.325245,-0.158622,-0.284471,-9.757917
7.358804,-0.331010,-0.124952,-9.958140
7.391957,-0.494869,-0.144405,-9.869401
7.425469,-0.367523,-0.147398,-9.854138
7.458352,-0.750759,-0.284022,-9.874489
7.491989,-0.504895,-0.253346,-9.832290
7.525547,-0.586301,-0.268310,-9.923572
7.558886,0.002993,-0.364081,-9.851145
7.591899,-0.378148,-0.232246,-9.445912
7.624686,-0.181068,-0.517316,-9.745048
7.658706,-0.259032,-0.110287,-10.009617
7.691459,0.088289,-0.464043,-9.519386
7.725538,-0.059109,-0.320386,-9.625932
7.758809,-0.400145,-0.366027,-10.117659
7.791902,0.705716,-0.344927,-9.618151
7.825324,0.324725,-0.374107,-9.702699
7.858865,0.734597,-0.106995,-9.870748
7.891918,-0.962653,-0.309611,-9.973403
7.925396,-0.413613,-0.332956,-9.982531
7.958789,-0.311557,-0.250802,-9.968465
7.991896,0.300034,-0.495917,-9.710929
8.025520,-0.048335,-0.261726,-9.677709
8.058828,-0.661721,-0.298837,-9.734124
8.091311,-0.758091,-0.131536,-9.937190
8.124511,-0.698683,-0.236585,-9.664390
8.158869,-0.196631,-0.086643,-9.640896
8.191640,0.137223,-0.055667,-9.560838
8.225543,-0.035016,0.235688,-9.659602
8.258792,0.458057,0.197379,-9.647331
8.291892,-0.293300,0.167002,-9.524175
8.325465,-0.293599,0.273547,-9.694469
8.357891,-0.151289,0.107593,-9.478684
8.391490,-0.104151,0.112382,-9.687286
8.424900,-0.074073,0.430672,-9.814931
8.458867,-0.239728,0.226260,-9.477486
8.492135,-0.002245,0.332507,-9.830494
8.525459,0.171940,0.083800,-10.110775
8.558806,-0.097717,0.128394,-9.907111
8.591888,-0.311856,0.168049,-9.847404
8.625458,0.165056,0.311706,-9.774827
8.658527,0.221322,0.031575,-9.582985
8.691631,-0.251101,0.398948,-9.692823
8.725531,-0.198576,-0.008380,-9.395482
8.758186,-0.135427,0.058061,-9.359119
8.791962,0.032323,0.176579,-9.260205
8.824711,-0.177626,-0.254543,-9.362112
8.858869,-0.183911,-0.022596,-9.574605
8.891524,-0.167151,-0.138120,-9.430349
8.925541,-0.319937,0.025140,-9.911601
8.958267,-0.117021,-0.321433,-9.828100
8.991910,-0.151738,-0.347321,-10.238271
9.024530,-0.416157,-0.348369,-10.096859
9.057807,-0.039805,-0.262324,-10.040593
9.092235,0.043097,-0.358545,-9.814482
9.125451,0.672046,-0.309761,-9.800566
9.158792,0.668455,-0.295096,-9.714521
9.191899,-0.142610,-0.443691,-9.641196
9.224599,-0.214887,-0.440399,-9.686089
9.258799,0.021100,-0.583607,-9.503674
9.292136,0.098914,-0.367373,-9.819720
9.325531,-0.112232,-0.372312,-9.662595
9.358792,0.016461,-0.280431,-9.515196
9.391978,-0.363333,-0.354953,-9.950807
9.425441,-0.117021,-0.372012,-9.920280
9.458797,0.065244,-0.403737,-10.010664
9.491911,-0.037411,-0.482898,-9.947665
9.525455,-0.084099,-0.429475,-9.994054
9.558817,0.305421,-0.430373,-9.897085
9.591840,-0.066441,-0.309312,-10.046878
9.625282,-0.039955,-0.347321,-10.012610
9.658865,0.210548,-0.250951,-9.932251
9.691901,0.088140,-0.093676,-10.054809
9.725450,0.303027,-0.031575,-9.654364
9.758888,-0.198127,0.246911,-9.696414
9.791949,0.154581,-0.039206,-9.590766
9.825340,-0.077665,-0.109539,-9.591215
9.858487,-0.394758,0.424687,-9.558443
9.892156,-0.424836,-0.042199,-9.678008
9.925468,0.052225,0.073624,-9.809245
9.958842,-0.214438,0.172389,-9.962030
9.992224,0.373060,-0.147398,-9.716915
10.025535,0.142011,0.136624,-9.927163
10.058929,0.142610,0.046090,-9.794580
10.092174,0.559665,0.235538,-9.916240
10.125125,0.507888,0.263072,-10.157015
10.158702,1.017123,-0.164308,-9.442320
10.192111,-0.604109,0.754799,-9.649875
10.225504,0.834708,-0.020501,-9.536895
10.258810,-0.319637,-0.005537,-9.459230
10.291827,0.134828,-0.109988,-9.386803
10.325543,0.663816,-0.256787,-9.396530
10.358562,0.078263,0.120313,-9.722003
10.392221,0.486040,0.162961,-9.743851
10.425471,0.096969,0.084099,-9.652419
10.458716,0.321433,0.172239,-9.578645
10.492116,0.142610,-0.094125,-9.565776
10.525565,-0.138569,0.076019,-9.645086
10.558790,0.312754,-0.010475,-9.647331
10.592161,0.272799,0.170144,-9.418377
10.625503,0.529437,-0.165505,-9.453843
10.658936,0.660075,-0.216234,-9.492451
10.692273,0.619522,-0.018406,-9.466862
10.725484,0.415708,-0.062551,-9.508014
10.758837,0.521057,-0.225512,-9.893943
10.792212,-0.067788,0.241524,-9.839323
10.825450,0.416157,-0.117021,-9.787247
10.858451,0.045641,-0.125102,-9.998543
10.892283,0.387875,-0.223716,-9.818822
10.925414,0.282227,-0.245414,-9.794580
10.959220,0.353457,-0.206208,-9.913097
10.992177,0.310509,-0.138120,-9.929707
11.025548,0.391017,-0.163260,-9.604533
11.058936,0.460601,-0.091282,-9.722602
11.091842,0.051477,-0.167450,-9.616654
11.125509,0.177177,-0.065993,-9.750884
11.158878,0.207405,-0.141113,-9.804756
11.191752,0.587349,-0.153085,-9.563830
11.225499,0.033819,-0.039356,-9.649576
11.258962,0.308564,-0.255441,-9.760312
11.291741,0.299735,-0.095921,-9.874489
11.325550,0.483646,-0.224015,-9.955446
11.358883,0.342084,-0.305721,-9.743252
11.391458,0.334452,-0.231797,-9.816278
11.424804,0.145303,-0.230600,-10.108531
11.458884,0.345974,-0.212343,-9.856382
11.491496,0.309611,-0.223417,-9.847404
11.525547,0.112681,-0.334302,-9.892297
11.558028,0.144256,-0.338492,-9.783357
11.591527,-0.058810,-0.199025,-9.890202
11.625525,0.004040,-0.252747,-9.801763
11.669286,-0.001496,-0.316644,-9.859375
11.691446,0.479157,-0.310210,-9.714670
11.725499,0.356599,-0.385630,-9.665887
11.758735,0.232096,-0.337445,-9.742205
11.792209,0.231797,-0.326820,-9.676362
11.825277,0.212343,-0.396853,-9.607975
11.858877,0.188400,-0.314849,-9.599745
11.892172,0.251251,-0.342084,-9.730383
11.925499,0.281329,-0.340587,-9.753877
11.958883,0.074672,-0.189298,-10.004828
11.992191,0.132135,-0.139318,-9.942427
12.025551,0.384882,-0.312903,-10.039096
12.058813,0.404335,-0.257835,-9.916988
12.091862,0.152486,-0.287015,-10.033709
12.125503,0.208752,-0.152935,-9.919232
12.158838,0.118517,-0.227757,-9.747293
12.191309,0.209500,-0.248407,-9.780364
12.225549,-0.020052,-0.099812,-9.726193
12.258715,0.141413,-0.189448,-9.398774
12.292249,0.007781,-0.022596,-9.495892
12.324987,0.136025,-0.286566,-9.561286
12.358929,0.456710,-0.113280,-9.701502
12.392031,0.286417,0.143208,-9.687435
12.425546,0.343730,-0.123306,-9.840670
12.458855,0.190795,0.131985,-9.999890
12.491809,-0.105199,0.067938,-9.840819
12.525500,0.240027,0.099662,-10.038797
12.558839,0.165355,0.220274,-9.819720
12.592137,-0.047886,0.037560,-9.867905
12.625446,-0.073475,0.140066,-9.677709
12.658804,0.358844,-0.044893,-9.508612
12.691256,0.224614,-0.036363,-9.682497
12.725453,0.142310,-0.060905,-9.488710
12.758299,0.062700,0.061354,-9.557994
12.792116,0.114028,0.086793,-9.522080
12.825458,0.155030,0.237334,-9.696863
12.858873,0.035765,-0.076019,-9.600194
12.892145,-0.005238,-0.016311,-9.774228
12.925518,0.262174,-0.065544,-9.865361
12.958877,0.258284,0.051028,-9.922525
12.991745,0.095622,-0.087541,-9.649875
13.025652,0.269058,0.098615,-9.937788
13.058174,0.509385,-0.148595,-9.774677
13.092183,0.519860,0.007183,-9.855933
13.125547,0.625956,-0.008679,-9.566823
13.158830,0.127945,-0.091881,-9.875387
13.192222,0.034119,-0.061354,-9.775276
13.225469,0.192441,0.034568,-9.812687
13.258851,0.290607,0.211894,-9.846057
13.291774,-0.024242,0.237483,-9.855933
13.325471,0.123755,0.065544,-9.662295
13.358982,0.052375,-0.286716,-9.562633
13.392173,-0.043396,-0.042199,-9.958289
13.425503,0.957865,-0.339540,-9.943923
13.458519,0.403288,-0.152486,-9.844561
13.491950,0.498012,-0.366476,-9.916988
13.525499,-0.158472,0.186605,-9.885263
13.558861,0.790264,-0.458805,-9.479282
13.592216,0.469580,0.175681,-9.782908
13.625501,0.415409,-0.119265,-9.844261
13.658837,0.017209,0.061204,-9.669628
13.692334,0.460751,-0.279533,-9.677260
13.725229,0.217581,-0.109688,-9.723948
13.758842,0.381440,-0.145752,-9.830344
13.791617,0.281329,-0.123306,-9.779915
13.830828,0.354205,-0.019903,-10.019792
13.858810,0.138719,-0.138569,-9.956942
13.891583,0.190346,0.030677,-9.954548
13.925496,0.170294,-0.108491,-9.927163
13.958833,0.179272,-0.222369,-9.780513
13.992169,0.100710,-0.085745,-9.911601
14.025507,0.176279,0.057463,-9.636557
14.059004,0.384283,-0.170892,-9.573707
14.091728,0.153234,-0.139018,-9.726941
14.125576,0.071380,-0.169994,-9.570714
14.158872,0.347621,-0.307516,-9.840221
14.191606,0.450425,-0.148745,-10.095063
14.225549,0.037411,-0.126149,-10.073215
14.258833,0.257536,-0.297640,-9.899779
14.291489,0.103553,-0.248856,-9.886610
14.325185,0.038907,-0.272649,-9.780064
14.358681,0.216234,-0.284771,-9.898133
14.392173,-0.005537,-0.193339,-9.824508
14.425067,0.269208,-0.175082,-9.828698
14.458881,0.211894,-0.153234,-9.964873
14.491668,0.186156,-0.232844,-9.943624
14.525510,0.335051,-0.175382,-9.895289
14.558927,-0.070631,-0.309611,-9.844261
14.591676,-0.011672,-0.295395,-9.859525
14.625503,-0.031874,-0.293300,-9.765848
14.658934,0.151888,-0.158173,-9.708086
14.691631,0.102206,-0.273547,-9.666485
14.725572,0.049981,-0.242272,-9.636856
14.759008,0.218030,-0.135577,-9.692823
14.791589,0.027235,-0.282526,-9.768542
14.825502,0.214588,-0.190645,-9.791437
14.858559,0.141113,-0.097866,-9.844261
14.891321,0.118368,-0.242272,-9.930156
14.925592,0.163709,-0.192441,-9.903819
14.960331,0.093377,-0.250353,-9.922076
14.992144,0.017508,-0.270854,-9.876434
15.025476,0.052375,-0.248557,-9.772882
15.058821,0.251251,-0.135277,-9.756421
15.092165,0.147099,-0.107593,-9.610369
15.124620,0.320086,-0.220274,-9.798171
15.158394,0.015413,-0.118816,-9.897235
15.192108,-0.013917,-0.118816,-9.711827
15.225461,0.041750,-0.105947,-9.858028
15.258129,-0.025888,-0.104002,-9.824359
15.292130,0.095472,-0.276989,-9.608574
15.325494,0.302578,-0.106396,-9.835582
15.358262,0.280132,-0.157275,-9.717514
15.392107,0.085446,-0.150990,-9.698659
15.424780,0.047287,-0.190346,-9.560239
15.458797,0.109988,-0.056415,-9.636108
15.492116,0.210548,-0.116273,-9.781860
15.524823,0.058959,0.092479,-10.134269
15.558842,0.128843,-0.037560,-9.950059
15.592144,0.021100,-0.040104,-10.036552
15.625504,0.085745,-0.128843,-10.087132
15.658851,0.000898,0.029031,-10.063189
15.692134,-0.009876,-0.067339,-9.904268
15.725498,0.035914,-0.012121,-9.752979
15.758474,0.132584,-0.238681,-9.622790
15.791688,-0.080807,-0.079311,-9.632816
15.825505,-0.036513,-0.002694,-9.615756
15.858846,0.102655,-0.128094,-9.518638
15.891555,0.032173,-0.049981,-9.697162
15.925519,0.106097,-0.194386,-9.613063
15.958801,0.057014,-0.011074,-9.814333
15.991663,0.043247,0.001945,-9.853689
16.025548,0.093377,-0.179123,-9.927912
16.059657,-0.018705,-0.177776,-10.097158
16.091576,-0.064346,-0.069434,-9.891997
16.125498,0.127945,-0.144705,-9.930456
16.158920,0.188700,-0.043097,-10.089227
16.192164,0.077964,-0.119714,-9.777670
16.225547,0.016610,-0.314400,-9.688034
16.258918,0.071230,-0.100410,-9.667683
16.292171,0.031275,-0.251550,-9.447707
16.325542,0.148446,-0.082603,-9.449503
16.358691,0.265018,-0.181068,-9.488410
16.392381,0.061354,-0.102356,-9.459529
16.425456,-0.016610,-0.238082,-9.409399
16.458382,0.118517,-0.224614,-9.902622
16.492167,0.188700,-0.326970,-9.828549
16.525474,-0.124653,-0.118218,-10.087281
16.558832,0.096819,-0.183612,-10.217770
16.592169,0.027983,-0.138869,-10.195473
16.625072,0.053423,-0.267113,-10.035954
16.658822,-0.056565,-0.288212,-10.013807
16.692110,0.084249,-0.247210,-9.867456
16.724839,0.291355,-0.308264,-9.682348
16.758799,0.050879,-0.247509,-9.597949
16.792140,-0.011822,-0.260678,-9.512054
16.825504,0.291056,-0.307067,-9.566524
16.858799,0.256338,-0.149643,-9.499933
16.892166,0.189598,-0.280730,-9.632367
16.925498,0.134978,-0.224764,-9.771086
16.958804,0.156826,-0.254094,-9.908458
16.992225,-0.077515,-0.082902,-9.948113
17.025503,0.031874,-0.219377,-10.070671
17.058859,0.116721,-0.149493,-10.054510
17.092023,0.094724,-0.174035,-9.995251
17.130949,0.127645,-0.223567,-9.989415
17.158317,-0.269357,-0.095771,-9.870149
17.192165,-0.071230,-0.174933,-9.769140
17.225480,0.202467,-0.198427,-9.737715
17.258389,0.193638,-0.164757,-9.666336
17.291989,-0.017209,-0.190795,-9.545873
17.325411,-0.042199,-0.153683,-9.625483
17.358908,0.440549,-0.150242,-9.617103
17.391458,0.332806,-0.137672,-9.460577
17.425552,0.224764,-0.269956,-9.796376
17.459096,-0.202766,-0.153683,-9.894990
17.491853,-0.122558,-0.249904,-9.837378
17.524835,-0.036363,-0.241973,-9.963227
17.558816,-0.026188,-0.338193,-9.930156
17.592273,-0.203814,-0.272949,-10.049871
17.625444,-0.205011,-0.308414,-9.998393
17.658785,-0.242571,-0.290307,-9.905166
17.692138,0.168498,-0.284771,-9.968166
17.725453,0.495019,-0.332207,-9.740259
17.758980,0.315747,-0.272649,-9.545275
17.791614,-0.025739,-0.244666,-9.802212
17.825506,0.073475,-0.149493,-9.674865
17.858852,0.254094,-0.191393,-9.594358
17.891942,0.093976,-0.322630,-9.665588
17.925554,-0.090085,-0.282376,-9.772283
17.958031,-0.272051,-0.219526,-9.910852
17.991755,-0.201120,-0.249156,-9.970560
18.025625,0.392214,-0.234042,-9.862518
18.058575,0.318889,-0.089187,-9.873142
18.091765,0.356898,-0.204861,-9.890950
18.125542,-0.178225,-0.048335,-9.840071
18.158063,0.070931,0.019454,-9.843513
18.192266,0.141862,-0.044594,-9.816428
18.224612,-0.137821,-0.077515,-9.901874
18.258807,-0.148296,-0.002694,-9.773630
18.292207,0.212194,-0.118218,-9.695217
18.325492,-0.098914,-0.004489,-9.664839
18.358856,0.064795,-0.196481,-9.509660
18.392058,0.218928,-0.089187,-9.566524
18.425558,0.209051,0.143059,-9.685490
18.458954,0.318739,-0.005238,-9.712127
18.492180,0.293151,0.042050,-9.759713
18.525498,-0.007482,0.015713,-9.970859
18.558960,-0.159070,0.089337,-10.014256
18.592173,-0.244068,-0.060306,-10.067379
18.625500,-0.215336,-0.081106,-10.180060
18.657891,-0.231198,-0.193937,-10.067229
18.691842,-0.070482,0.007033,-9.892297
18.725546,-0.056565,-0.007632,-9.729934
18.758795,-0.024392,-0.060905,-9.623239
18.792133,-0.348219,0.040404,-9.526719
18.825447,-0.249604,-0.063149,-9.386354
18.858839,-0.071380,-0.079909,-9.453693
18.892159,-0.062251,-0.082603,-9.373933
18.925485,-0.087840,-0.151738,-9.439477
18.958880,0.005088,-0.100859,-9.574754
18.991209,-0.113280,-0.047886,-9.750136
19.025501,-0.040703,-0.187054,-9.785601
19.058967,-0.231498,-0.046689,-9.982681
19.092180,-0.259331,-0.101308,-10.081745
19.125559,-0.178075,-0.196780,-10.193528
19.158947,0.018556,-0.224913,-10.270893
19.192086,-0.131835,-0.064795,-10.157314
19.225143,-0.249305,-0.291205,-10.217171
19.258955,-0.175382,-0.322780,-9.874489
19.292579,-0.067190,-0.254992,-9.627129
19.325017,0.134080,-0.271901,-9.665588
19.358950,-0.150690,-0.269208,-9.567123
19.393319,-0.044893,-0.286417,-9.529412
19.424975,0.126897,-0.263821,-9.383511
19.458878,0.016311,-0.433067,-9.568469
19.492174,-0.247958,-0.192291,-10.132174
19.525080,0.089636,-0.522104,-10.038947
19.558882,0.202617,-0.236286,-10.310100
19.592241,-0.344628,-0.412566,-10.294687
19.625577,-0.033520,-0.376651,-10.332995
19.658903,-0.027085,-0.338492,-9.947066
19.692211,-0.145902,-0.304224,-9.831691
19.725316,0.093976,-0.331309,-9.738913
19.758887,0.321134,-0.226110,-9.483622
19.792211,-0.106995,-0.246911,-9.436484
19.825500,-0.120762,-0.173735,-9.442021
19.858956,0.036663,-0.136474,-9.459380
19.892182,-0.015114,-0.043247,-9.518040
19.925551,-0.128843,-0.076168,-9.652419
19.958944,-0.104451,-0.192740,-9.768392
19.992162,-0.095622,-0.051328,-9.873891
20.025555,-0.097268,-0.156975,-9.850097
20.059017,-0.183013,-0.091731,-9.949610
20.092209,-0.159819,-0.080358,-10.007671
20.125560,-0.174783,0.033221,-10.032811
20.158969,-0.104151,-0.053273,-9.958738
20.191735,-0.175531,0.120762,-9.818074
20.225506,0.118368,0.033969,-9.903969
20.258949,-0.061204,-0.206208,-9.657058
20.292110,0.104002,-0.083351,-9.559042
20.325550,0.109090,-0.124353,-9.512054
20.358875,0.105648,-0.191842,-9.647930
20.392136,-0.002095,-0.210398,-9.650174
20.425554,-0.021100,-0.094275,-9.804606
20.460501,0.000000,-0.034568,-9.799518
20.492139,-0.019454,-0.222818,-9.927463
20.525499,-0.364830,-0.135577,-9.987470
20.558505,-0.340288,-0.199324,-9.921776
20.592242,-0.354504,-0.222968,-9.981185
20.625547,-0.127346,-0.209350,-9.850995
20.658883,-0.085446,-0.121510,-9.840520
20.692321,-0.015713,-0.234790,-9.818074
20.725546,-0.060605,-0.108790,-9.972056
20.758961,0.081106,-0.106396,-9.746544
20.792104,-0.293450,-0.190346,-9.755224
20.825505,-0.103553,-0.167301,-9.882420
20.858086,-0.091133,-0.215336,-9.693870
20.891860,-0.211894,-0.098615,-9.842466
20.925487,-0.131835,-0.192740,-9.713773
20.958882,0.053722,-0.293749,-9.741905
20.991846,-0.257386,-0.070183,-9.656160
21.025550,-0.091282,-0.132883,-9.710032
21.058792,0.016610,-0.228804,-10.037301
21.092253,0.051328,-0.070482,-9.907411
21.125567,-0.044444,-0.094574,-9.955446
21.158431,-0.235388,-0.113280,-10.065733
21.192281,-0.315896,-0.102505,-9.770487
21.225126,-0.155629,-0.160118,-9.897833
21.258372,-0.251999,-0.174035,-9.613661
21.292231,-0.147398,-0.101458,-9.708385
21.325244,-0.080658,-0.102505,-9.608723
21.358499,-0.276839,-0.057014,-9.699257
21.392214,-0.150092,-0.134379,-9.715568
21.425503,-0.069883,0.026936,-9.665737
21.458956,-0.143059,0.088140,-9.965472
21.492256,-0.013468,-0.068387,-9.950358
21.525475,-0.260678,-0.127197,-9.801613
21.558568,-0.178674,-0.159370,-9.868503
21.592170,-0.154581,-0.166702,-9.802661
21.625548,-0.312006,-0.008979,-9.764202
21.658333,0.104151,-0.201868,-9.654514
21.692282,-0.099513,-0.114178,-9.695067
21.725507,-0.123755,-0.082453,-9.640597
21.758558,0.011223,-0.235538,-9.535249
21.792307,0.165505,-0.274445,-9.705991
21.825452,-0.259930,-0.289260,-9.733974
21.858884,-0.234341,-0.210248,-9.713024
21.892212,-0.201868,-0.307816,-9.797872
21.925492,-0.106097,-0.324426,-9.866558
21.957960,-0.215187,-0.323378,-10.029370
21.992117,-0.303027,-0.319637,-10.221062
22.025445,-0.124353,-0.235837,-10.070970
22.058820,-0.156377,-0.219825,-10.185896
22.092142,-0.150242,-0.132284,-10.314739
22.125471,-0.019304,-0.338193,-10.089077
22.158842,-0.313801,-0.250502,-10.112721
22.191618,-0.376053,-0.173885,-9.791437
22.225521,-0.197828,-0.199175,-9.818373
22.258899,-0.152037,-0.323528,-9.579094
22.292267,-0.145752,-0.128693,-9.493648
22.325446,-0.136774,-0.180170,-9.725295
22.358829,-0.114028,-0.102954,-9.745048
22.392286,-0.016910,-0.028582,-9.853090
22.425497,-0.003442,-0.014815,-9.803558
22.458351,-0.218928,-0.075121,-10.023982
22.492208,-0.313203,0.016760,-10.003332
22.525497,-0.343431,-0.008829,-9.948712
22.558968,-0.236735,0.061653,-9.899330
22.591904,-0.234490,-0.067639,-9.774977
22.624729,-0.159070,-0.103553,-9.625633
22.658915,-0.279234,0.054171,-9.659602
22.692196,-0.105349,0.123306,-9.648229
22.725547,0.029180,0.093078,-9.505170
22.759029,-0.010026,0.043097,-9.556947
22.792167,0.013468,-0.016760,-9.682946
22.825548,-0.329364,0.086494,-9.637604
22.858954,-0.166852,0.014366,-9.774079
22.892162,-0.163111,0.080059,-9.794729
22.925154,-0.292103,0.113579,-9.822563
22.958950,-0.246911,0.049233,-9.886012
22.992207,-0.263072,0.132883,-9.723200
23.025580,-0.203065,0.183612,-9.774378
23.059020,-0.156676,0.082902,-9.741457
23.092166,-0.132135,0.148745,-9.641645
23.124822,-0.089486,0.138869,-9.602289
23.158955,-0.263222,0.117170,-9.669329
23.192169,-0.231348,0.231797,-9.733226
23.225639,-0.076019,0.200073,-9.623987
23.258882,-0.207255,0.218179,-9.682497
23.292217,-0.112232,0.124802,-9.774378
23.325553,-0.236885,0.107294,-9.714521
23.358849,-0.178075,0.196631,-9.757768
23.391747,-0.082603,-0.063449,-9.803259
23.425543,-0.193039,0.028283,-9.753278
23.458892,-0.254543,0.000150,-9.826454
23.492238,-0.204562,0.219227,-9.853389
23.525253,-0.257536,0.087391,-9.771235
23.558423,-0.097717,-0.042798,-9.829746
23.592215,-0.336846,-0.091881,-9.812387
23.624699,-0.247809,-0.143957,-9.771086
23.658928,-0.313801,-0.014665,-9.798022
23.691384,-0.089935,-0.088140,-9.847703
23.725490,-0.180769,-0.087541,-9.947066
23.758891,-0.181068,-0.142909,-9.949460
23.792192,-0.188251,-0.143508,-10.007971
23.825592,-0.329065,-0.126897,-10.036104
23.858848,-0.285519,-0.084249,-9.876734
23.892214,-0.197529,-0.150690,-9.765250
23.925544,-0.383834,-0.242571,-9.761359
23.958820,-0.312155,-0.228505,-9.668730
23.992433,-0.157424,-0.164308,-9.741157
24.025531,-0.068985,-0.244517,-9.524474
24.058234,0.076168,-0.176279,-9.578645
24.091336,-0.262623,-0.126149,-9.786349
24.124530,-0.121959,-0.074672,-9.742803
24.157964,-0.112232,-0.016461,-9.861919
24.192108,-0.223567,-0.009727,-9.924769
24.225444,-0.281628,-0.059259,-9.902472
24.258153,-0.279234,-0.042948,-9.867905
24.292120,-0.297640,-0.003741,-9.782608
24.325567,-0.102655,-0.012420,-9.851743
24.358887,-0.055218,-0.010625,-9.774977
24.391607,0.008230,0.001646,-9.739062
24.424705,-0.106396,0.057613,-9.911601
24.458945,0.074073,0.073624,-9.638502
24.492202,-0.007033,-0.047586,-9.746694
24.525502,0.073624,-0.005686,-9.758217
24.558897,-0.075570,0.065693,-9.734723
24.592141,0.175082,-0.103104,-9.718561
24.625494,-0.003143,-0.046539,-9.779316
24.658920,-0.066292,0.131387,-9.884665
24.692145,-0.126149,-0.070781,-9.846955
24.725505,0.380392,0.026636,-9.668580
24.758900,0.559365,-0.176728,-9.911002
24.792182,0.428727,-0.084249,-9.933149
24.825498,-0.256787,0.070033,-9.828698
24.858976,0.208004,0.006584,-9.908009
24.892775,0.156975,0.111185,-9.727689
24.925566,0.120313,-0.063000,-9.810143
24.958270,-0.134679,0.155778,-9.759264
24.992181,0.357647,-0.068088,-9.690428
25.025548,0.275792,0.091133,-9.665139
25.058325,0.103403,-0.004340,-9.816428
25.092318,0.113130,0.224614,-9.791288
25.125505,0.363483,0.213840,-9.902921
25.158848,0.260828,0.283274,-9.773929
25.192295,0.220873,0.206358,-9.863266
25.225498,-0.158622,0.294946,-9.778418
25.258888,-0.039506,0.264868,-9.812387
25.292219,0.095472,0.226709,-9.777072
25.324762,0.178075,0.298089,-9.713773
25.358881,0.164757,0.262474,-9.793233
25.392096,0.146949,0.115375,-9.809993
25.425228,0.216084,0.228205,-9.776922
25.458966,0.142011,0.219227,-9.768392
25.491590,0.000599,0.246312,-9.887957
25.525498,-0.122109,0.353906,-9.838575
25.558965,0.185408,0.336248,-9.890800
25.592163,0.200522,0.249904,-9.655561
25.625523,-0.021998,0.027684,-9.723350
25.658882,-0.057313,0.152037,-9.702998
25.692212,-0.165954,0.217132,-9.731430
25.725550,0.289110,0.206956,-9.770637
25.758773,0.349716,0.123306,-9.734573
25.792246,0.367074,0.093228,-9.818373
25.825012,-0.097717,0.109539,-9.742055
25.858957,0.109838,0.112382,-9.830494
25.892553,0.223866,0.126149,-9.862967
25.924984,0.091731,0.370067,-9.652269
25.958833,0.199773,-0.003143,-9.839922
25.992226,0.145603,-0.000299,-9.652868
26.025543,-0.025888,0.070781,-9.735770
26.058894,0.313053,0.119565,-9.663493
26.091790,0.299286,0.164009,-9.697910
26.125676,0.195583,0.150541,-9.655561
26.158889,-0.091881,0.060156,-9.833637
26.191908,-0.129890,0.086643,-9.772433
26.225542,-0.055518,0.273547,-9.818523
26.258832,-0.203215,0.267262,-9.732478
26.291827,0.018107,0.146949,-9.774228
26.325544,0.254842,0.055518,-9.762556
26.358912,0.238232,0.270106,-9.604982
26.391825,-0.077216,0.019005,-9.732777
26.425494,-0.092330,0.277737,-9.705542
26.458839,-0.086494,0.103104,-9.694768
26.491896,-0.118966,0.353008,-9.831841
26.525550,0.077515,0.285219,-9.912648
26.558844,-0.079011,0.239429,-9.859076
26.592209,0.027235,0.203215,-10.092070
26.625544,-0.279533,0.025290,-9.803259
26.658603,-0.123904,0.119714,-9.692823
26.692213,-0.240177,0.219227,-9.909506
26.725498,-0.112681,0.244068,-9.828549
26.758958,-0.208153,-0.033670,-9.782758
26.792162,-0.039506,0.203514,-9.629224
26.825555,-0.102655,0.022297,-9.792335
26.858742,-0.101009,0.216384,-9.898133
26.892165,-0.312305,0.025439,-9.942128
26.925500,-0.121809,0.002694,-10.186644
26.958875,-0.244666,0.088439,-9.796974
26.992312,-0.188251,0.078563,-9.858926
27.024679,-0.267262,0.188550,-9.696115
27.058876,-0.204712,-0.209650,-9.790689
27.092166,0.163560,0.041451,-9.874788
27.125568,-0.217730,-0.083351,-9.831542
27.158963,-0.134828,0.316944,-10.073065
27.191281,0.099213,0.090833,-9.819869
27.225464,0.473919,0.159519,-10.198167
27.258955,0.480354,-0.064945,-9.881073
27.292223,0.660374,0.468831,-9.902622
27.325549,0.574779,-0.064346,-9.465964
27.358875,0.525845,0.078114,-9.588671
27.392064,0.387276,0.554427,-9.851594
27.425550,0.523750,0.266364,-9.725594
27.458857,0.882444,-0.089786,-10.061992
27.492420,0.871820,-0.126598,-9.864762
27.525498,0.408974,0.231348,-10.073963
27.558966,-0.153683,0.215187,-9.789941
27.592214,-0.260079,0.281329,-9.914444
27.625208,0.057613,-0.273697,-9.727240
27.658959,-0.401642,0.156377,-9.830943
27.692201,-0.319937,0.644213,-9.734274
27.725020,0.321882,0.060306,-9.738464
27.759024,0.345974,0.328466,-9.656010
27.792050,0.227757,0.027385,-10.365617
27.825524,0.736842,-0.058510,-9.447558
27.858883,1.277951,0.245115,-9.626980
27.891478,-0.189897,0.016161,-9.881822
27.925332,0.079460,-0.038309,-9.994054
27.958066,-0.344179,0.607401,-9.783357
27.992113,0.256039,0.212942,-9.929258
28.025453,1.003506,0.217132,-10.264309
28.058829,0.359442,0.566099,-9.319314
28.091968,0.389820,0.472423,-9.971607
28.125457,0.865385,-0.032473,-9.494097
28.158841,0.669054,0.182864,-9.755224
28.192135,0.604558,-0.007931,-9.687585
28.225467,1.704284,0.103104,-9.777820
28.258888,0.367523,0.350913,-9.766447
28.291736,1.675402,0.425734,-9.769739
28.325497,0.691949,0.092479,-9.695815
28.358963,0.841143,0.521655,-9.987470
28.392170,1.262238,0.149643,-9.668431
28.425506,1.901064,0.492026,-9.410297
28.458880,1.751571,0.482599,-9.739810
28.492026,2.234020,-0.283274,-10.300074
28.525656,-0.377998,0.140365,-10.069025
28.558717,0.220125,-0.066142,-9.966520
28.592253,0.183462,0.000299,-9.749837
28.625545,-1.179935,0.422143,-10.158960
28.658166,-0.262174,0.175980,-9.973403
28.692266,1.455278,0.812262,-9.882869
28.724767,1.377613,0.390269,-9.871047
28.758433,1.450938,-0.096220,-9.530011
28.792213,0.484544,-0.172688,-9.759863
28.828774,0.592287,0.000150,-9.886760
28.858879,-0.048484,0.376352,-10.228993
28.892208,0.988392,0.424387,-9.747891
28.924690,0.866732,0.210398,-10.008868
28.958799,0.186455,0.812860,-10.025479
28.991843,0.630146,0.954273,-9.900228
29.025434,0.441447,0.748065,-10.093716
29.058956,0.576425,0.479306,-9.987769
29.092138,0.468981,0.322780,-9.803409
29.125624,1.146265,0.317093,-9.815231
29.157990,0.753752,0.409722,-9.434689
29.191692,0.766770,0.526893,-10.026676
29.225672,0.616828,0.285668,-10.169136
29.259830,0.640472,0.050729,-9.714072
29.291571,0.604707,0.479306,-9.795777
29.325518,0.561011,-0.001048,-9.524923
29.358836,1.111847,0.565052,-9.886909
29.392203,1.141476,-0.241524,-10.033859
29.425476,0.447582,0.591838,-9.996149
29.458831,1.476228,-0.038009,-9.528814
29.491889,1.111548,0.716042,-9.573856
29.525040,1.011736,0.530035,-9.621593
29.558960,0.020052,0.325174,-10.078901
29.592167,0.007033,-0.011971,-9.714371
29.625500,-0.043546,0.030228,-9.844860
29.657963,0.584805,0.726517,-9.906962
29.691914,0.222669,0.341036,-9.429152
29.725556,0.755398,1.043909,-9.706290
29.758716,0.655586,0.576425,-9.544078
29.791762,1.110949,0.559066,-9.804756
29.825024,0.347321,0.339241,-9.654065
29.858672,0.009577,0.653491,-10.327458
29.891887,0.354055,0.196332,-9.691925
29.925504,0.407627,0.761533,-9.788744
29.958886,0.312006,0.546646,-10.068277
29.991612,0.016161,0.518662,-10.264459
30.025504,0.241224,0.420197,-9.864463
30.059283,0.900851,0.521655,-10.092220
30.092144,0.330262,0.871371,-9.983280
30.125171,0.543802,0.370666,-9.659602
30.158947,0.990636,0.620569,-9.664989
30.191451,1.114840,0.447283,-9.575652
30.225507,0.892171,0.235987,-9.262300
30.258950,-0.475565,1.305934,-9.714521
30.292086,2.161143,-0.158622,-9.874190
30.325506,0.050879,0.999615,-9.679055
30.358874,0.193638,-0.101159,-10.182604
30.395901,0.226859,0.513425,-10.161055
30.425473,0.974475,0.086494,-9.418976
30.458888,1.044807,0.760934,-10.026676
30.491597,0.822887,0.739236,-10.095212
30.525501,0.014366,0.672795,-9.823311
30.558962,-0.151289,0.414810,-9.942128
30.592163,0.551734,0.713946,-9.909206
30.625663,-0.020052,0.721878,-9.377375
30.658931,0.410471,0.896511,-9.710780
30.692151,0.834858,-0.591987,-9.878230
30.725545,-0.502950,0.736243,-9.972505
30.758766,1.237697,0.175681,-9.195858
30.791933,0.222519,-0.132434,-10.212084
30.825582,0.433516,0.756744,-10.007073
30.858882,1.135790,0.427380,-9.333081
30.892151,0.664864,0.083052,-9.809245
30.925561,0.795951,0.256189,-9.666485
30.957976,0.752405,0.001646,-9.696264
30.991402,0.644363,0.533627,-10.007222
31.025447,0.727564,0.349117,-9.986721
31.058791,1.158835,0.116572,-9.305696
31.092123,0.195284,0.397152,-9.917437
31.125552,-0.258433,0.329214,-9.840969
31.159188,0.051477,1.549702,-9.788893
31.192160,0.744174,-0.325473,-9.983429
31.225467,-0.163111,1.237697,-10.122298
31.258847,-0.009876,0.871072,-9.982232
31.292141,0.707811,0.529586,-9.672920
31.325482,0.457907,0.445487,-9.716017
31.358969,1.270169,-0.169994,-9.720507
31.392115,1.207319,0.069434,-9.779915
31.425578,0.639424,0.731754,-9.793981
31.459019,0.269058,0.426931,-9.805953
31.493919,-0.334452,1.058275,-9.503075
31.524914,-0.489632,0.536919,-9.550063
31.558833,0.120463,1.062764,-9.923572
31.592146,0.122109,0.229552,-9.598697
31.625059,-0.499508,0.742079,-9.482125
31.658925,0.369468,0.864637,-10.006025
31.692137,0.232246,0.708709,-9.948113
31.724965,0.332956,0.658878,-9.697162
31.758951,0.523601,0.816153,-9.791437
31.791890,1.055581,0.952627,-9.666485
31.825525,0.675039,0.769314,-9.716167
31.859183,-0.107743,0.762431,-9.659602
31.891364,0.020202,0.785775,-10.001686
31.925204,0.003143,0.528240,-9.881073
31.958921,0.215785,0.755697,-9.662445
31.992049,-0.168648,0.811364,-9.756570
32.025589,0.252298,-0.066591,-9.497688
32.058902,-0.605156,1.118431,-9.727689
32.092165,-0.677733,1.003506,-9.931952
32.125226,0.022596,0.554277,-9.707637
32.158109,0.044594,0.602463,-9.966968
32.192174,0.199324,0.549339,-10.004828
32.225319,0.090684,0.302578,-9.817326
32.258887,-0.113429,0.714395,-9.878081
32.292144,-0.464492,1.082367,-9.980137
32.325572,-0.043396,0.484245,-9.806551
32.358851,-0.329364,0.987643,-10.037899
32.392164,-0.360789,0.747616,-9.665139
32.425214,0.136624,0.570140,-9.850397
32.458260,0.172239,0.586451,-9.688932
32.492170,-0.215336,0.414960,-9.484520
32.524756,-0.336846,0.580465,-9.578795
32.558863,-0.527791,1.181281,-9.791288
32.592145,-0.154432,0.754799,-9.924919
32.624955,-0.217282,0.714994,-9.983280
32.658926,0.089038,0.748963,-9.827052
32.692137,0.370217,0.515670,-9.761359
32.725076,-0.031425,0.529437,-9.859226
32.758950,0.258433,0.413463,-9.944821
32.792168,0.106396,0.529736,-9.901425
32.825215,-0.013618,0.399696,-10.001686
32.858959,0.358245,0.290307,-9.668132
32.891897,-0.288212,0.838300,-10.008719
32.925489,0.036513,0.333853,-9.866558
32.958877,0.367224,0.593484,-9.699257
32.991503,-0.187054,0.471226,-9.957391
33.024600,0.053871,0.365428,-9.687585
33.057993,0.148745,0.580166,-9.934197
33.092121,0.165056,0.756595,-9.549914
33.125444,-0.205909,0.710804,-9.741905
33.158196,0.042648,0.453268,-9.779316
33.192124,0.265616,0.801488,-9.830644
33.225481,0.425884,0.683419,-9.701502
33.258846,0.533327,0.697186,-9.878679
33.291511,0.685065,0.607550,-9.955446
33.324552,0.058959,0.760934,-10.130079
33.358878,0.307816,0.551135,-9.980137
33.392134,0.093377,0.805678,-9.950208
33.425126,0.658130,0.960857,-9.671573
33.458955,0.543802,0.747915,-9.581039
33.491847,0.626256,0.730856,-9.424662
33.524693,0.203514,0.594831,-9.493797
33.558913,0.276540,0.928235,-9.539738
33.591471,0.621916,0.457309,-9.401917
33.624664,0.488884,0.722775,-9.548716
33.658882,0.738189,0.349865,-9.959636
33.699798,0.678930,0.689405,-9.975498
33.724953,0.293599,0.633888,-10.066481
33.758884,0.402540,0.727564,-10.274335
33.792170,0.284172,0.980910,-9.997496
33.824994,0.081555,0.704669,-10.100001
33.858927,0.328317,0.775599,-10.050769
33.892167,0.294048,0.955770,-9.699407
33.925502,0.246462,1.098379,-9.439627
33.958908,0.288512,1.050194,-9.450401
33.991678,0.567745,0.641070,-9.382014
34.025552,0.603809,0.588246,-9.318715
34.058584,0.849523,0.519111,-9.645535
34.091392,0.036363,0.778293,-9.593460
34.125502,1.041216,0.975373,-9.702849
34.158800,-0.054919,0.581512,-9.787846
34.192168,-0.056415,0.676985,-10.112721
34.225544,0.021249,0.690752,-10.044484
34.258529,0.804929,0.833661,-9.854138
34.292171,0.893668,0.908482,-9.837677
34.325575,1.145217,0.784578,-9.812687
34.358329,1.132348,0.867630,-9.639699
34.391683,-0.276091,0.746120,-9.561885
34.425678,-0.328616,0.678780,-9.527317
34.458284,-0.067788,0.681175,-9.487812
34.491613,0.596177,0.743127,-9.408501
34.525498,0.422292,0.741630,-9.560688
34.558756,0.445637,0.714246,-9.603486
34.591680,0.159370,0.774103,-9.839772
34.625498,0.240476,0.612040,-9.992857
34.658523,0.319937,0.523152,-9.932401
34.691737,0.374107,0.662918,-10.260418
34.725499,0.227008,0.414661,-9.881672
34.759290,0.351811,0.773355,-9.820019
34.792146,0.891573,0.936017,-9.660051
34.825503,0.927188,0.499658,-9.483921
34.858846,0.900551,0.755697,-9.400420
34.891769,-0.218329,0.607101,-9.576700
34.925550,-0.175681,0.449827,-9.779167
34.958890,-0.161016,0.779191,-9.748639
34.991727,0.924045,0.985548,-9.584481
35.025546,1.122322,1.008145,-9.912947
35.058826,0.947090,1.033883,-9.733376
35.091687,0.354654,0.729509,-9.912199
35.125572,0.227607,0.939608,-9.934945
35.157993,0.184360,0.809868,-9.796525
35.192114,0.293151,0.630146,-9.818672
35.225447,0.033819,0.751806,-10.121849
35.258814,0.495468,0.791761,-9.789193
35.292077,0.490230,0.698234,-9.708685
35.325466,0.644063,0.708260,-9.563232
35.358849,0.096071,0.561011,-9.479581
35.392137,0.506990,0.646308,-9.525222
35.424948,0.629698,0.814357,-9.472099
35.458899,0.540211,0.761533,-9.520883
35.492326,-0.186904,0.700030,-9.750136
35.525030,0.260079,0.916264,-9.957990
35.558964,-0.347621,0.687011,-10.226150
35.592102,0.373359,0.638078,-9.850546
35.625510,0.290008,0.326671,-9.991660
35.658083,0.346573,0.537368,-9.867905
35.692140,0.164158,0.498610,-10.093716
35.725474,-0.087541,0.756295,-9.912947
35.758856,0.439202,0.997520,-9.431247
35.791982,0.343131,0.130638,-9.821964
35.825205,0.085296,0.770811,-9.615756
35.863402,-0.558617,0.431121,-9.611866
35.892140,-0.150990,0.280880,-10.126488
35.924532,0.930031,0.407627,-9.848601
35.958820,0.061803,0.813160,-9.867306
35.992098,-0.109838,0.611591,-9.949760
36.025033,-0.001496,0.806575,-9.709134
36.058959,0.205160,0.771260,-9.797722
36.092171,0.044893,0.517914,-9.642543
36.125556,0.381141,0.800440,-9.587624
36.158952,-0.222818,0.638676,-9.679654
36.191876,-0.124653,0.920154,-9.878978
36.225559,0.354654,0.500107,-9.468209
36.258983,0.317692,0.684616,-9.909506
36.291657,-0.104900,0.847877,-9.987769
36.325503,-0.155928,0.888131,-9.647181
36.358957,-0.186754,1.100325,-9.771235
36.391708,0.437406,0.850571,-10.041491
36.425502,0.377400,0.959511,-9.858926
36.458953,0.293001,0.856556,-9.815530
36.491217,0.103104,0.918359,-9.758067
36.525034,0.157574,0.527491,-9.267986
36.558998,-0.000748,0.432169,-9.280407
36.591944,-0.291654,0.597674,-9.544227
36.625013,0.428577,0.554427,-9.576251
36.658952,0.231498,0.791312,-9.505919
36.691883,0.555624,0.723075,-9.944821
36.725504,0.276839,0.873167,-9.682946
36.758874,0.299136,0.898307,-9.617552
36.792767,0.399098,0.552332,-9.693571
36.825527,-0.509534,0.742528,-9.580441
36.858242,-0.312305,0.880798,-9.582985
36.891612,0.374706,0.732802,-10.138759
36.925524,-0.349267,0.779789,-10.074412
36.958218,-0.131985,0.719783,-10.111224
36.992145,0.349117,0.776797,-10.000937
37.025515,0.026337,0.580016,-10.025928
37.058904,0.173287,0.469430,-9.865361
37.092166,0.115973,0.468831,-10.161355
37.125589,0.047886,0.336397,-10.135317
37.158520,0.300184,0.538864,-9.582386
37.192284,0.016161,0.295395,-9.852342
37.224864,0.721129,0.642716,-10.015303
37.258885,0.368571,0.293749,-9.786499
37.292214,0.173735,0.297939,-10.154321
37.324659,0.195583,0.406730,-10.143248
37.358838,-0.068387,0.664115,-10.122148
37.391748,-0.056266,0.564603,-9.748939
37.424818,0.294497,0.739685,-9.978790
37.458926,0.956667,0.457907,-9.565925
37.492136,-0.774851,0.483047,-9.996448
37.525117,0.161764,0.562358,-9.956643
37.558961,-0.871670,0.766022,-9.949610
37.592075,0.100111,0.538715,-9.954847
37.625032,0.133930,0.740583,-10.090723
37.658881,0.055518,0.555175,-9.681001
37.691581,-0.261277,0.757493,-9.918634
37.725507,0.921651,0.691350,-9.644039
37.758880,0.759288,0.914169,-9.377375
37.792944,0.210398,0.841442,-9.888855
37.825036,-0.179422,0.825879,-9.419425
37.858948,0.470328,0.517465,-9.665887
37.891642,0.175531,0.449827,-9.746844
37.925179,-0.259331,0.256338,-9.664241
37.958881,0.082902,0.596626,-9.812687
37.991316,0.606204,0.849972,-9.658405
38.024914,0.985997,0.652593,-9.385755
38.058928,1.054983,0.599919,-9.423316
38.092204,0.838749,0.460302,-9.650174
38.124921,-0.078712,0.467185,-10.426223
38.158890,0.056715,0.733550,-9.813435
38.192143,0.679229,0.710654,-10.142500
38.225468,0.187802,0.750908,-10.988132
38.258154,-0.223866,-0.030527,-10.209989
38.292119,-0.326371,0.384133,-10.251589
38.325453,-0.789217,1.022660,-10.178264
38.358815,2.114006,-0.307067,-9.603935
38.392141,0.599021,-1.667920,-9.737117
38.425478,-0.084548,-0.735645,-9.613661
38.458883,-0.821091,1.042562,-9.257960
38.491189,2.626982,-0.349117,-9.143783
38.525505,-0.530634,0.353008,-9.753129
38.558850,0.408974,1.811428,-10.381031
38.592146,1.511693,0.882594,-10.037301
38.625380,0.532879,1.022660,-10.298877
38.658986,0.454765,0.567147,-9.783207
38.692252,0.760485,0.849822,-9.887508
38.725507,1.231113,0.869126,-10.161055
38.758520,1.063812,0.472722,-9.512353
38.791915,0.633738,0.733250,-9.389496
38.825626,0.828573,0.877806,-9.340713
38.858678,0.553978,1.010688,-9.552906
38.892174,0.118667,0.673693,-9.190172
38.925541,-0.115973,1.265081,-9.780214
38.958331,0.064795,1.109902,-9.623089
38.992188,-0.151439,1.168113,-10.003481
39.025550,1.322245,1.299649,-10.023384
39.058269,-0.405981,0.659476,-10.175122
39.092070,1.239792,-0.073475,-9.574455
39.125162,0.417803,0.384283,-10.028621
39.161144,0.729210,0.515221,-9.901275
39.192137,0.924195,0.568643,-10.255779
39.225507,2.060883,0.314849,-10.157913
39.258411,1.539527,0.135876,-9.513850
39.292204,-0.502351,0.450126,-10.042389
39.325304,0.235837,0.316794,-10.338981
39.358440,-0.121660,0.183313,-9.930755
39.391999,1.783594,-0.184360,-9.787547
39.424975,1.258497,0.169845,-9.848900
39.458829,1.033434,0.177028,-10.114965
39.492142,1.693060,-0.119415,-10.040593
39.525496,-0.143957,0.924494,-10.686003
39.558896,0.028881,0.442494,-9.833038
39.591677,0.523152,0.219975,-10.083840
39.625016,0.367972,0.370815,-9.673968
39.658168,0.909081,-0.007183,-9.286243
39.691813,0.162363,1.797661,-10.222708
39.725060,0.391017,0.810765,-9.718112
39.758912,-0.470627,1.386891,-10.638267
39.792169,0.539762,0.499209,-10.574070
39.825501,2.101735,-0.703023,-9.648528
39.858942,1.615396,0.229702,-9.075994
39.892114,-0.408974,1.000812,-10.552821
39.925501,0.244517,-0.138270,-10.020541
39.958962,0.038458,-0.183013,-9.895289
39.991743,0.043696,0.652443,-9.812986
40.025500,0.701077,0.693894,-9.487064
40.058911,0.662170,0.201719,-9.184186
40.092051,0.013618,1.218393,-10.006624
40.125502,0.459105,0.739236,-9.662295
40.158898,0.248258,0.936466,-9.242397
40.191356,0.975373,1.013232,-9.585229
40.225458,1.378062,1.038672,-9.870748
40.258885,-0.125401,1.307580,-9.806102
40.291285,0.605455,0.723075,-9.681899
40.325488,0.627752,0.864637,-9.825406
40.359155,0.008979,0.319488,-9.978042
40.392126,-0.293599,0.556971,-9.660051
40.424539,0.983753,-0.175681,-10.243060
40.458953,0.226260,-0.009727,-10.075609
40.492179,-1.000363,1.023408,-10.395546
40.525503,0.993480,0.346723,-9.596901
40.558786,0.821240,0.872867,-10.116761
40.592121,-0.019154,0.786523,-9.978491
40.625506,0.953525,-0.161465,-9.493049
40.658838,0.884390,0.495767,-9.643141
40.691201,-0.136175,1.162576,-9.976695
40.725502,0.420796,0.523601,-9.664989
40.757957,0.438304,1.269421,-9.861321
40.792107,0.684168,1.147312,-9.901575
40.825448,1.061118,0.804929,-9.645386
40.858833,-0.547544,1.222583,-10.345715
40.892209,0.171491,1.337808,-9.405358
40.925136,1.101222,-0.063449,-9.669628
40.958806,-0.204263,1.007995,-9.735920
40.992169,-0.816153,1.663431,-10.244257
41.025491,1.748727,0.681324,-9.636407
41.058887,1.177690,0.436508,-9.483023
41.092132,0.524947,0.670251,-9.524774
41.125504,-0.154581,0.785925,-9.787247
41.158953,-0.520458,1.749027,-9.710032
41.191952,0.932276,0.675339,-9.763005
41.225487,0.707213,0.897558,-10.241563
41.259054,0.143208,-0.634935,-9.929258
41.291785,1.719697,0.744623,-9.420173
41.325500,1.070546,0.597524,-9.348345
41.358966,-0.002544,0.844435,-10.202357
41.398977,0.326371,0.936765,-9.834834
41.425490,0.888281,0.278785,-9.903969
41.458241,0.283723,1.460964,-10.654279
41.492173,0.922100,0.499957,-9.619797
41.525501,1.416670,1.147013,-9.764651
41.558846,1.497327,0.396404,-9.455639
41.592171,-0.539014,0.184061,-10.476802
41.625183,-0.013917,-0.202916,-10.042389
41.658886,0.348069,0.003292,-9.887209
41.692149,1.551348,1.273611,-9.127322
41.725500,2.322907,1.009042,-9.467760
41.758971,1.587861,-0.148745,-9.412092
41.791411,0.148745,0.091133,-10.028921
41.825503,0.267412,1.024456,-10.446574
41.858056,0.539612,0.536470,-9.767494
41.892139,0.729958,1.069648,-9.778568
41.924890,-0.211595,1.569455,-9.953950
41.958883,0.296592,0.594980,-9.524325
41.992162,0.876908,0.303775,-9.620395
42.025365,0.508487,0.684018,-9.879427
42.058893,0.471974,-0.075869,-8.958674
42.092142,0.858202,0.832164,-10.579158
42.125470,1.698447,-0.737590,-9.446361
42.158964,-0.873466,2.105327,-10.176768
42.192141,0.619671,-0.659925,-9.631918
42.225516,-0.840245,0.271752,-9.517591
42.258882,2.511458,1.543118,-9.569816
42.291969,1.955983,0.720830,-9.560538
42.325021,2.147825,-0.004489,-9.444715
42.358875,0.697486,0.194835,-9.250927
42.392144,1.660887,0.542605,-9.531956
42.424744,-0.083201,1.508251,-9.826603
42.458919,0.694643,1.045106,-10.150431
42.494600,1.057078,0.843986,-9.835432
42.525474,0.367972,0.909530,-9.285195
42.558887,-0.123605,1.801851,-9.273373
42.592181,0.661571,1.744388,-10.115414
42.625249,1.338407,-0.832613,-9.706889
42.658877,-0.254243,1.715507,-10.321024
42.691445,0.394010,-0.036663,-9.978192
42.725525,0.204861,0.834708,-9.736818
42.758920,0.657232,0.507140,-9.502177
42.792129,-0.043696,0.853264,-10.284810
42.825523,1.276305,0.538864,-10.267601
42.858886,1.038971,0.346573,-9.950358
42.892137,1.397815,0.317243,-9.590018
42.924588,-0.653191,0.792359,-9.950657
42.958923,0.156975,0.780238,-9.678607
42.992017,-1.905853,0.291355,-10.097158
43.025405,1.529052,1.105712,-9.715419
43.058976,-0.193638,1.404549,-10.145343
43.091486,0.298837,0.771709,-10.184998
43.125473,0.706614,0.545897,-10.481591
43.159025,-0.097418,1.040168,-9.694469
43.192153,0.335200,0.824233,-10.020541
43.225660,0.143957,0.643614,-9.891099
43.258920,-0.011971,0.275343,-9.656459
43.291849,0.159519,0.563106,-10.207894
43.325450,0.383086,0.448330,-9.642991
43.358792,0.008679,1.097032,-10.147288
43.392118,1.554790,0.417953,-9.759114
43.425460,0.068686,0.500406,-10.102246
43.458831,-0.172538,1.661785,-9.145578
43.492121,0.102056,0.791761,-9.232072
43.525188,-0.142011,1.678246,-10.360380
43.558827,0.577771,0.310359,-9.611866
43.591983,0.394309,0.046240,-10.415448
43.625478,-0.410920,1.245778,-10.138609
43.658894,1.076980,0.248707,-9.438280
43.692463,-0.073624,1.925605,-9.900377
43.724779,1.082367,0.991833,-9.906812
43.758882,-0.068387,0.884689,-9.913247
43.792204,-0.053123,1.184125,-10.018745
43.825498,1.052140,0.915516,-10.420985
43.858918,0.921801,0.057463,-9.666037
43.892109,1.318504,0.375155,-9.804905
43.925501,-0.451323,0.586600,-9.760012
43.958952,-0.239728,0.050130,-9.794131
43.991681,-1.194001,0.767968,-9.975498
44.025034,2.039035,0.859100,-9.581937
44.058880,1.974988,0.133781,-10.152975
44.092167,1.506456,-0.197828,-9.649276
44.125467,1.056928,0.688208,-10.178264
44.158885,-0.562508,1.117833,-9.966669
44.191954,-0.001796,0.607101,-9.826903
44.225507,-0.762431,1.150904,-10.129181
44.257999,1.005152,0.561460,-9.800416
44.291535,-0.647206,0.858801,-9.881822
44.325505,0.377848,0.825879,-10.020541
44.358808,-0.163859,0.590491,-9.857579
44.392157,-0.065993,0.991385,-9.572809
44.425498,-0.109239,1.421309,-9.512952
44.458697,0.502950,0.459853,-9.660649
44.492168,0.486190,0.794903,-9.705093
44.525124,-0.340587,0.623413,-9.778867
44.558629,-0.229552,0.802385,-9.664690
44.592167,-0.646906,0.883342,-9.653018
44.624682,-0.452520,0.941703,-10.004230
44.658873,0.216084,0.937363,-9.788594
44.691645,0.678631,0.958313,-9.774528
44.724987,0.291953,1.044508,-9.684143
44.758830,-0.565052,0.999465,-9.868503
44.792177,0.043396,0.473171,-9.412841
44.825495,-0.064945,1.008743,-9.788145
44.858881,0.521356,0.426931,-10.000189
44.892673,0.115075,0.498610,-9.370791
44.925550,-0.342533,0.650648,-9.626680
44.958117,-0.445038,0.797447,-9.841717
44.991843,-0.364979,0.836055,-9.887358
45.025556,-0.385929,0.760635,-9.761808
45.058555,-0.332207,0.988691,-9.909057
45.092159,-0.609047,0.892321,-9.779167
45.125545,-0.276989,1.109602,-9.894990
45.158156,-0.047736,0.832314,-10.066481
45.192329,-0.289409,0.952178,-10.010515
45.225469,-0.435760,0.931527,-9.652718
45.258883,-0.391316,1.083265,-9.956942
45.292290,-0.138420,0.700179,-9.809843
45.326219,-0.359592,0.791162,-9.627429
45.358839,0.359293,0.782034,-9.592113
45.392213,-0.181367,0.849224,-9.622490
45.425710,-0.301680,0.914019,-9.483472
45.458887,-0.430373,0.190047,-9.443817
45.492098,0.025290,0.105498,-9.796076
45.525506,0.089786,0.245115,-9.505470
45.558905,-0.332207,0.698833,-10.255031
45.591688,-0.340887,0.477062,-10.015752
45.625504,-0.735495,0.693445,-9.612764
45.658841,-0.736243,1.053786,-9.845907
45.691898,-0.250353,0.867331,-9.735920
45.725508,-0.072278,0.893368,-9.963676
45.758919,-0.295694,0.465838,-9.592562
45.794155,-0.638526,0.741481,-9.850846
45.825488,-0.038907,0.410171,-10.051666
45.858878,-0.371115,0.650199,-10.373997
45.892157,-0.887233,0.923746,-9.827052
45.925496,-0.535123,0.479306,-9.862069
45.958882,-0.063299,0.571187,-9.856682
45.991473,0.117320,0.749562,-10.055258
46.025503,-0.465689,0.812112,-9.823461
46.058931,-0.311557,0.283124,-9.663792
46.092102,-0.245714,0.591389,-9.797872
46.125512,-0.313652,0.815554,-9.501729
46.158946,-0.360789,0.939608,-9.599296
46.191719,0.040853,0.606802,-9.797273
46.225503,0.254543,0.374407,-9.836031
46.258956,0.081555,0.657980,-9.867606
46.292090,-0.648852,0.573581,-9.773330
46.324933,-0.446235,0.889328,-9.709732
46.358960,-0.528539,1.054683,-9.492750
46.391621,0.221322,0.723075,-9.552906
46.425792,0.299436,0.704519,-9.952603
46.458852,0.104002,0.827974,-9.817625
46.492168,-0.538864,1.105263,-9.802212
46.525480,-1.033733,0.926589,-9.413738
46.558452,-0.109838,0.995126,-9.556648
46.592166,0.212942,0.581213,-9.997795
46.625560,-1.267476,1.001860,-9.972805
46.658885,-0.944247,0.613087,-9.837228
46.692147,-1.535636,0.869276,-9.955745
46.725935,0.441147,0.279533,-10.024731
46.758865,0.091881,0.362735,-9.582386
46.792158,-0.528988,0.835008,-9.830793
46.824776,-0.367822,0.640472,-9.701203
46.859168,-0.220574,0.581512,-9.585529
46.892150,0.035016,0.186006,-9.606179
46.925475,0.022297,0.137522,-9.793832
46.958885,0.164458,0.069584,-9.674716
46.992160,-0.452969,0.568643,-9.780663
47.025585,-0.582560,1.138783,-9.932700
47.058868,0.023943,0.788618,-9.997047
47.092170,-0.430074,0.816003,-10.099103
47.125504,-0.034119,0.684317,-10.153274
47.158761,-0.713946,0.800889,-10.154022
47.192171,-0.192740,0.815105,-9.843962
47.225475,-0.508636,0.585104,-9.744300
47.258851,-0.513724,0.726367,-9.596901
47.292166,-0.191543,0.679529,-9.764950
47.324667,-0.460900,0.379046,-9.884066
47.358949,-0.284471,0.870922,-10.124542
47.391598,-0.333704,0.724122,-9.700305
47.425428,0.058660,0.669054,-9.760012
47.458879,0.468831,0.709756,-9.652120
47.491435,-0.835157,0.747915,-9.802212
47.525274,-0.250203,0.689704,-9.954249
47.558929,-0.427530,0.642567,-9.726792
47.591976,-0.417953,0.615182,-9.980586
47.625527,-0.891124,0.772008,-9.773330
47.658006,-0.577322,0.820642,-9.718711
47.691894,-0.584356,0.868827,-9.542880
47.725511,-0.006734,1.045555,-9.457883
47.758654,0.200821,0.397302,-9.417629
47.792140,0.247809,0.582410,-9.383361
47.824787,-0.298238,0.487686,-9.635509
47.858601,-0.187353,0.781136,-9.819121
47.891468,-0.179123,0.856706,-9.762107
47.924829,-0.350913,0.773355,-9.841268
47.958837,-0.524050,0.868677,-9.974900
47.992161,-0.762132,0.595429,-9.818223
48.025466,-0.613237,0.947838,-10.054360
48.058880,-0.040853,0.423789,-9.765848
48.092146,0.097567,0.699730,-10.019643
48.125500,-0.046689,0.547544,-10.023384
48.158877,-0.283873,0.698982,-9.645685
48.192158,-0.761533,0.435012,-9.764053
48.225510,-0.646009,0.581064,-9.490056
48.258926,-1.119778,0.528689,-9.637904
48.292170,0.566698,0.300483,-9.487512
48.325503,0.201719,0.566698,-9.852941
48.358923,-0.362884,0.739236,-9.957840
48.391318,-0.227008,0.458805,-9.866558
48.425466,-0.625508,0.674590,-10.126787
48.458827,-0.103104,0.354354,-10.206696
48.492122,-0.313801,0.565351,-10.086832
48.524903,-0.201120,0.327269,-10.043735
48.558806,-0.556971,0.531532,-9.852941
48.592128,-0.608897,0.477062,-9.821516
48.625454,0.114477,0.650947,-9.709583
48.658788,0.576874,0.389371,-9.710480
48.692197,-0.651695,0.541558,-9.476439
48.725473,-0.143358,0.393711,-9.806701
48.758864,-0.633139,-0.264419,-9.523876
48.792167,-0.448031,1.074436,-9.974600
48.825526,-0.136774,0.593783,-9.703447
48.858863,-0.172538,0.537069,-9.696115
48.892139,-0.304823,0.716341,-9.974900
48.925482,-0.218030,0.468083,-10.174972
48.958859,-0.325922,0.599769,-10.040294
48.992202,-0.532130,0.686113,-9.911750
49.025454,-0.432468,0.563106,-10.204901
49.058801,-0.348518,0.588845,-9.647930
49.091837,-0.240027,0.795502,-9.480330
49.125477,-0.999316,0.500256,-9.358071
49.158810,-0.637030,0.180619,-9.351188
49.192222,0.879901,0.614284,-9.226984
49.225479,0.265467,0.235089,-9.969063
49.258887,0.103403,0.629249,-9.898881
49.292316,-0.079760,0.783830,-9.951106
49.325271,0.447582,0.161465,-10.244406
49.358893,-0.939458,0.446385,-9.781112
49.392223,-0.561760,0.007482,-9.996149
49.425136,-0.818248,0.036812,-9.755972
49.458837,0.779041,0.246612,-9.899779
49.492242,0.484694,0.160118,-9.933149
49.524978,0.777694,0.024841,-10.074861
49.558922,-1.332870,0.471525,-9.965472
49.592153,-0.906836,-0.085147,-9.838126
49.625578,-1.201932,0.163260,-10.054659
49.658837,-1.469344,0.419748,-9.912199
49.692165,0.570289,0.160268,-9.984327
49.725506,0.220274,0.417953,-9.848751
49.758605,-0.298837,0.295694,-9.656609
49.792191,0.049981,0.142610,-9.439028
49.825474,-0.451772,0.948287,-9.603336
49.858876,-0.323378,-0.106546,-9.649725
49.892238,-0.099513,0.065244,-9.671424
49.925467,0.140515,0.741481,-9.895140
49.958903,-0.461648,0.271303,-9.924171
49.992250,-0.763778,0.503249,-10.025629
50.025474,-0.465539,0.356749,-10.078752
50.058807,-0.550087,0.606054,-9.977443
50.092138,-0.045192,0.694942,-9.999291
50.125472,-0.237184,0.290457,-9.584631
50.158884,-0.408675,0.598123,-10.171381
50.191960,-0.315747,0.633738,-9.802661
50.225475,-0.118667,0.448181,-9.697312
50.258871,-0.206058,0.441896,-9.690129
50.291465,0.216084,0.566099,-9.762556
50.325498,0.200522,0.843238,-9.724846
50.358835,-0.945743,0.695241,-9.838575
50.392188,-0.380542,0.416456,-9.551410
50.425502,-0.531083,0.632690,-9.566374
50.458870,0.132733,0.246013,-9.679205
50.492235,0.212194,0.584356,-9.903819
50.525481,-0.072427,0.199324,-9.947066
50.558833,0.003591,0.143358,-9.954548
50.592258,-0.311706,0.366326,-9.796974
50.625109,-0.406730,0.519111,-9.677110
50.658841,-0.736692,0.097268,-9.660799
50.692013,-0.591090,0.145603,-9.883468
50.724764,-0.450425,0.474218,-9.587175
50.758906,-0.091881,0.169545,-9.772433
50.791518,-0.359891,0.000449,-10.001237
50.825503,-0.855509,0.068836,-9.942876
50.858567,0.336397,0.185258,-9.544676
50.891374,0.234790,0.546945,-9.800715
50.925512,-0.057014,0.184061,-10.074562
50.958820,-1.080721,-0.019454,-9.938237
50.992115,-0.867929,0.239129,-10.089526
51.025444,0.543952,0.105947,-9.927014
51.058814,0.674141,-0.263222,-9.610968
51.092127,-0.073026,0.274146,-9.693571
51.125474,-0.222968,0.396404,-9.811340
51.158057,-0.267262,0.239578,-9.604833
51.192137,-0.683120,0.501005,-9.946617
51.224651,-0.454615,0.904442,-9.882420
51.258797,-0.719633,0.317393,-10.046579
51.292188,-0.451473,0.291654,-10.161804
51.325479,-0.372012,0.235837,-9.972655
51.358884,-0.185857,0.438603,-9.923422
51.392164,-0.213540,0.271303,-9.801314
51.425915,-0.318141,0.010325,-9.715419
51.458980,-0.401043,0.316196,-9.502327
51.492285,-0.082902,0.597075,-9.593609
51.525546,0.564304,0.361537,-9.629673
51.558307,0.086045,0.140664,-9.526569
51.592219,-0.524199,0.544551,-9.615308
51.625129,-0.403138,0.644961,-9.615906
51.658776,-0.396554,0.486340,-9.482425
51.692286,-0.256189,0.384732,-9.855784
51.724611,-0.402689,0.208752,-9.902472
51.758900,-0.255141,0.454915,-10.094764
51.792317,-0.829022,0.145752,-9.817475
51.825140,-0.429326,0.648702,-10.078153
51.858895,-0.273847,0.606653,-9.490356
51.892216,-0.198875,0.527342,-9.659602
51.924872,-0.606802,0.680426,-9.919681
51.958834,-0.300483,0.375005,-9.621293
51.992296,-0.512677,0.368421,-9.868952
52.024981,-0.574629,0.071829,-10.195773
52.058897,-0.735196,0.238232,-10.083989
52.092230,-0.352708,0.062850,-9.865062
52.124834,-0.417055,0.040104,-10.443132
52.158881,-0.500705,-0.158023,-9.714670
52.192209,-0.263372,0.061054,-9.913546
52.224517,-0.336098,0.110586,-9.801912
52.258849,-0.537218,-0.037411,-9.411643
52.291497,-0.208902,-0.236286,-9.532555
52.329035,-0.291804,0.138569,-9.576400
52.358747,0.178823,0.881996,-10.022935
52.392155,1.061567,-0.331160,-9.291929
52.425469,-0.918209,0.523002,-10.198765
52.458873,-0.448181,0.022596,-9.500232
52.492262,-0.741331,-0.085895,-9.825855
52.525493,-0.096071,0.302578,-9.846955
52.558901,-0.179871,0.318889,-9.877632
52.592264,-0.145603,0.243170,-10.041491
52.625165,-0.143957,0.165355,-9.802511
52.658857,-0.023793,0.621916,-9.908907
52.692215,-0.919556,-0.227757,-9.676063
52.724974,-1.450040,0.136774,-9.381116
52.758222,-1.231561,0.942152,-9.771684
52.792225,-0.374257,0.217581,-9.486615
52.825925,-0.359143,0.236137,-9.683994
52.858442,-0.386079,0.244068,-9.602139
52.892212,-0.585852,0.061503,-9.585678
52.926336,-0.360490,0.236585,-9.923273
52.958878,-0.565351,0.478708,-10.069025
52.992241,-0.371414,0.245414,-9.872394
53.025336,-0.757642,0.395057,-9.832589
53.058933,-0.445038,-0.015563,-9.899031
53.092040,-0.696738,-0.264419,-9.539289
53.125506,-1.219440,0.050430,-9.610369
53.158152,0.501454,-0.050280,-9.960983
53.192034,-0.412865,-0.010026,-9.875686
53.225629,-0.691500,-0.209350,-10.068726
53.258703,0.345376,-0.111783,-9.618749
53.292218,-0.287913,0.324127,-9.823461
53.325502,-0.435311,0.051178,-10.012759
53.358273,-0.369618,-0.029629,-9.792634
53.392189,-0.473620,-0.001048,-9.747143
53.427588,-0.438753,-0.167600,-9.518489
53.458809,-1.071593,0.233144,-9.921477
53.492075,-0.255740,-0.189448,-9.586576
53.525498,-1.293214,0.153085,-9.895439
53.557995,-0.859250,0.324276,-10.013807
53.591262,-0.232844,0.325473,-9.946318
53.625473,-0.293899,0.796699,-9.851145
53.658812,-0.026936,-0.090684,-9.574156
53.692238,-0.306618,0.110137,-9.765549
53.725457,-0.674890,-0.194087,-9.682348
53.758859,-0.860297,-0.168498,-9.977144
53.792163,-0.701077,0.029031,-9.817326
53.825468,-0.249604,0.560862,-9.912798
53.858112,0.249006,0.053871,-9.568619
53.892157,-0.117470,0.102356,-9.878978
53.925520,-0.678182,0.406730,-9.548567
53.958885,-0.860746,0.060156,-9.807449
53.992181,-0.593933,0.208153,-9.910403
54.025738,-0.504147,0.309911,-9.652868
54.058520,-0.453268,0.194087,-9.804456
54.092173,-0.440998,0.143807,-9.665737
54.124604,-0.430672,-0.014964,-9.677559
54.158584,-0.340288,0.130638,-9.826753
54.192192,-0.518513,-0.216683,-9.701203
54.225485,-0.761234,0.444888,-9.713174
54.258903,-0.210847,0.181816,-9.954548
54.292168,-0.478708,0.265766,-9.582536
54.325503,-1.289174,0.279533,-9.847853
54.358847,-0.497264,0.482898,-10.057203
54.391925,-0.828423,-0.126897,-9.750136
54.425516,-0.721279,0.102655,-9.774528
54.458809,-0.391765,-0.160118,-9.729635
54.492189,-0.346573,0.040254,-9.898731
54.524675,-0.395357,-0.160567,-9.744150
54.558856,-0.769314,-0.087840,-9.932251
54.592261,-0.268160,0.236286,-9.883468
54.625498,-0.326521,-0.217581,-9.532256
54.658703,-0.667856,0.022147,-10.086234
54.692221,-0.352259,-0.002544,-9.844561
54.725521,-0.952028,-0.094275,-9.669478
54.758837,-1.011137,0.070931,-9.999142
54.792166,-0.508786,-0.017209,-9.802361
54.825546,-0.515071,0.072128,-9.944372
54.858554,-0.380093,0.081256,-9.557246
54.892414,-0.569242,0.125700,-9.695217
54.925076,-0.390568,-0.157873,-9.423615
54.958890,-0.358844,-0.003891,-9.436933
54.992167,-0.763628,0.173885,-9.896786
55.025103,-0.693595,0.184061,-9.647181
55.058826,-0.160866,-0.049083,-9.805204
55.092247,-0.715593,0.305272,-10.064236
55.124941,-0.419150,0.090085,-9.882570
55.158842,-0.549339,0.212942,-9.886012
55.192211,-0.301531,-0.064346,-9.749388
55.224656,-0.352559,-0.132733,-9.649276
55.258837,-0.588246,-0.018705,-9.795328
55.292214,-0.406580,0.033819,-9.642393
55.325519,-0.413912,-0.135876,-9.935693
55.358857,-0.461648,-0.070183,-9.675464
55.392217,-0.473171,-0.349566,-9.767794
55.425001,-0.524798,-0.142161,-9.848152
55.458897,-0.694792,0.104600,-10.054360
55.491995,-0.696139,-0.140365,-9.963227
55.525522,-0.798644,-0.035016,-9.667084
55.558963,-0.355252,0.113729,-9.788893
55.591690,-0.671747,-0.028283,-9.977443
55.625480,-0.544700,0.282526,-9.879577
55.658821,-0.382487,-0.181068,-9.647930
55.692659,-0.346274,-0.149643,-9.844860
55.725485,-0.684766,-0.126748,-9.771385
55.758873,-0.444888,-0.206208,-9.801912
55.792155,-0.448480,-0.265916,-9.818074
55.825490,-0.463444,-0.007781,-9.781860
55.858927,-0.307067,-0.061354,-9.773480
55.891463,0.018107,-0.243170,-9.660949
55.925507,-1.142524,-0.133033,-9.809245
55.959135,-0.417055,0.038309,-9.608873
55.991760,-0.658728,0.153534,-9.836929
56.025528,-0.566847,-0.239728,-9.568469
56.058934,-0.902497,0.074971,-9.995550
56.091995,-0.016910,0.178524,-9.763753
56.125910,-0.070482,-0.004190,-9.635210
56.158892,-0.037860,-0.106097,-9.736967
56.192255,-0.087691,-0.059109,-9.708984
56.225546,-0.830069,0.081555,-9.669029
56.258146,-0.560263,0.002245,-9.781112
56.292178,-0.362884,-0.169845,-9.715269
56.325495,-0.468831,-0.062551,-9.550811
56.358431,-0.388174,-0.105798,-9.659901
56.392190,-0.673244,-0.098315,-9.862069
56.425873,-0.478558,-0.296742,-9.683395
56.458888,-0.356150,-0.063299,-9.719160
56.492157,-0.507739,-0.184809,-9.760012
56.525477,-0.506841,-0.107294,-9.802661
56.559002,-0.364381,-0.302877,-9.705243
56.591996,-0.667408,-0.103254,-9.897385
56.625474,-0.632840,-0.056415,-9.779616
56.658892,-0.371563,-0.299884,-9.859525
56.691912,-0.490679,-0.226709,-9.544826
56.725519,-0.493672,-0.294946,-9.947515
56.758888,-0.753452,-0.213391,-9.860872
56.795195,-0.335200,-0.317692,-9.597201
56.825476,-0.331908,-0.163111,-9.914893
56.858832,-0.351362,-0.304224,-9.464168
56.892195,-0.729958,-0.192890,-9.648079
56.925520,-0.520009,-0.213989,-9.907860
56.958745,-0.603660,-0.084099,-9.804905
56.992172,-0.662769,-0.193488,-9.735471
57.025614,-0.686861,-0.047586,-9.815081
57.058716,-0.768267,-0.082304,-9.892746
57.092177,-0.485292,-0.113579,-9.748190
57.125504,-0.764825,-0.142759,-9.737715
57.158725,-0.545149,-0.228654,-9.716167
57.192170,-0.435760,-0.234341,-9.686837
57.225544,-0.656334,0.014066,-9.780962
57.258615,-0.417653,-0.190196,-9.409100
57.292225,-0.606204,-0.102954,-9.680253
57.325309,-0.689704,0.060456,-9.867606
57.358178,-0.675339,-0.063449,-9.579842
57.392172,-0.402390,-0.152486,-9.768243
57.425362,-0.578220,-0.074223,-9.804456
57.458812,-0.504895,-0.231198,-9.772732
57.492169,-0.468083,0.083650,-9.997496
57.525486,-0.380542,-0.113729,-9.757319
57.558858,-0.357647,0.054620,-9.925966
57.591321,-0.611142,-0.083501,-9.872394
57.625554,-0.456411,0.106845,-9.952752
57.658809,-0.499658,-0.032772,-9.723050
57.692167,-0.398499,-0.000599,-9.844261
57.725518,-0.357946,0.029779,-9.783057
57.758566,-0.374856,-0.072128,-9.639101
57.791666,-0.011373,-0.140964,-9.740259
57.825173,-0.087840,-0.027983,-9.697761
57.863395,-0.047886,-0.153085,-9.706440
57.892140,-0.002245,-0.155928,-9.698060
57.925505,0.199324,-0.120762,-9.850546
57.958835,-0.124952,-0.037860,-9.892746
57.992145,0.209799,-0.021399,-9.913845
58.025601,0.171341,-0.002993,-9.926116
58.058866,-0.017508,-0.051477,-9.944522
58.092164,-0.055817,-0.093676,-9.856831
58.125547,-0.063000,0.046689,-9.862069
58.158745,0.065993,0.020351,-9.853389
58.192230,0.105349,-0.027085,-9.729784
58.225516,0.267562,-0.019454,-9.770487
58.258863,0.314400,-0.216234,-9.720058
58.292249,-0.000449,-0.017957,-9.786349
58.324709,0.094275,0.015114,-9.784254
58.358843,0.109539,-0.121959,-9.760611
58.392257,-0.021998,-0.121211,-9.823461
58.425097,0.108790,-0.234191,-9.663642
58.458885,-0.181218,-0.053871,-9.877332
58.492392,0.138569,-0.074821,-9.800865
58.526076,0.032772,-0.014815,-9.805055
58.558839,0.086344,-0.140215,-9.854287
58.592164,0.022746,-0.094425,-9.886610
58.625484,-0.173586,-0.105498,-9.732777
58.658871,-0.357048,0.016461,-9.813136
58.692151,-0.051627,-0.208453,-9.838126
58.725468,-0.164009,-0.201569,-9.752979
58.758887,0.071380,-0.216084,-9.721105
58.792158,0.155180,-0.228505,-9.748789
58.825527,-0.122258,-0.197978,-9.908009
58.858828,0.118966,-0.139467,-9.884216
58.892145,-0.076318,-0.210398,-9.870449
58.925520,-0.052525,-0.249156,-9.984926
58.958259,-0.258284,-0.205011,-9.872394
58.992140,-0.183163,-0.249754,-9.993156
59.025522,-0.153833,-0.241973,-9.889603
59.058567,-0.046389,-0.353008,-9.717065
59.092164,-0.153833,-0.258433,-9.777371
59.125543,-0.290906,-0.306319,-9.756421
59.158807,-0.092629,-0.297640,-9.830644
59.192183,-0.083201,-0.288661,-9.707188
59.224720,-0.112232,-0.253495,-9.799967
59.258656,0.010774,-0.209650,-9.864613
59.292438,-0.065693,-0.266215,-9.868653
59.325401,-0.067788,-0.133482,-9.991809
59.358855,-0.153833,-0.285818,-9.956344
59.392093,-0.159819,-0.214139,-10.044783
59.425014,-0.153234,-0.051776,-9.915791
59.458840,-0.183462,-0.247958,-9.981933
59.492202,-0.210847,-0.254243,-9.818223
59.525497,-0.237932,-0.225512,-9.758067
59.558915,-0.016461,-0.256338,-9.701352
59.591836,-0.226260,0.001347,-9.786349
59.625500,0.079909,-0.187952,-9.724397
59.658863,0.164907,-0.213092,-9.623688
59.691727,0.017508,-0.119864,-9.630272
59.725507,-0.104900,-0.218479,-9.640747
59.758945,-0.158921,-0.134978,-9.747592
59.791719,-0.109838,-0.123455,-9.805653
59.825509,-0.121809,-0.156975,-9.821216
59.858970,0.097118,-0.015713,-9.894392
59.892209,0.162662,-0.099513,-9.930605
59.925502,0.176728,0.061204,-9.769290
59.958971,-0.281778,0.129740,-9.796824
59.991502,-0.238980,0.041451,-9.879727
60.025503,-0.052674,0.046838,-9.761060
60.058940,-0.212194,-0.003591,-9.680851
60.097447,-0.079011,0.014216,-9.597650
60.125471,-0.054320,0.027684,-9.537344
60.158181,0.056565,-0.017059,-9.584631
60.192153,-0.003143,-0.019903,-9.533453
60.225511,0.036663,0.106246,-9.686837
60.258838,0.069434,0.079311,-9.721255
60.292164,0.120163,0.078413,-9.813884
60.325550,0.029330,0.149344,-9.739362
60.358856,-0.215187,-0.016760,-9.834684
60.392213,-0.331908,0.059109,-10.017847
60.425548,-0.268310,-0.008530,-9.828549
60.458698,0.157574,-0.008230,-9.842914
60.491506,0.154132,-0.033969,-9.898881
60.525547,0.167301,-0.208453,-9.591065
60.558861,-0.201719,0.006435,-9.742654
60.592292,-0.070931,0.056565,-9.765998
60.625292,0.106695,-0.049233,-9.589419
60.658979,0.163410,-0.192291,-9.735321
60.692152,-0.051926,-0.116572,-9.923871
60.725494,-0.142610,-0.287314,-9.911750
60.758919,-0.072427,-0.263521,-9.966520
60.792149,0.206358,-0.149344,-10.030267
60.825523,0.115674,-0.271003,-10.089376
60.858955,-0.008380,-0.228804,-9.865660
60.892344,-0.169994,-0.168797,-9.705991
60.925521,0.019154,-0.203365,-9.804756
60.958573,0.066591,-0.188101,-9.636258
60.992172,-0.115824,-0.151289,-9.830344
61.025543,-0.346872,-0.311557,-9.616954
61.058938,-0.376202,-0.087990,-9.729485
61.092170,-0.339689,-0.124054,-9.783656
61.125142,-0.070332,-0.309911,-9.672920
61.161933,-0.306469,-0.233144,-9.921776
61.192141,-0.263222,-0.160268,-9.881223
61.224627,-0.317542,0.070332,-9.830793
61.258991,-0.178075,-0.035615,-9.867306
61.292273,0.137223,-0.141862,-9.921327
61.325518,-0.032173,0.064496,-9.876584
61.358946,-0.226709,-0.160717,-9.870299
61.392178,-0.236585,-0.106546,-9.738913
61.425547,-0.297490,-0.101608,-9.783207
61.458951,-0.104151,-0.204263,-9.550213
61.492172,-0.061653,-0.035016,-9.555001
61.525544,-0.137672,-0.097717,-9.662146
61.558891,-0.225512,0.001197,-9.721105
61.591761,-0.147099,0.016610,-9.841568
61.624972,-0.209201,0.006435,-9.923273
61.658880,-0.142909,-0.163859,-9.921477
61.691760,-0.290158,-0.199923,-9.989565
61.724898,-0.278785,-0.136025,-9.930306
61.758951,-0.326671,-0.145004,-9.933149
61.792081,-0.027983,-0.207106,-9.832739
61.825505,-0.219077,-0.202317,-9.749537
61.858950,-0.170294,-0.248407,-9.830045
61.892237,-0.097717,-0.312754,-9.647032
61.925572,0.034268,-0.200821,-9.729635
61.958961,0.041601,-0.149344,-9.733376
61.991907,-0.074971,-0.216833,-9.661398
62.025545,-0.156527,-0.274296,-9.686538
62.058964,-0.341635,-0.201719,-9.781262
62.091859,-0.327718,-0.230749,-9.919083
62.125621,-0.312454,-0.268310,-9.760461
62.158956,-0.269956,-0.254692,-9.706141
62.191891,-0.169845,-0.137073,-9.772433
62.225550,-0.167151,-0.192740,-9.850097
62.258950,-0.008230,-0.103703,-9.870299
62.296090,-0.040404,-0.253346,-9.741307
62.325502,-0.093976,-0.166253,-9.819271
62.358084,-0.162363,-0.137971,-9.786200
62.392195,-0.286716,0.032622,-9.945869
62.425576,-0.249604,-0.184959,-9.495892
62.458456,-0.509834,0.037261,-9.793383
62.492306,-0.274296,-0.123007,-9.780064
62.525515,-0.106396,0.040553,-9.630122
62.558966,-0.113429,0.069285,-9.691775
62.592362,-0.023045,-0.131835,-9.469256
62.625372,-0.345526,-0.031874,-9.550961
62.658168,-0.300184,-0.143508,-9.693122
62.691343,-0.263521,-0.201419,-9.832140
62.725258,-0.257236,-0.132135,-9.797273
62.758924,0.229103,-0.236436,-9.930905
62.791398,0.017808,-0.171790,-10.039994
62.825504,-0.010026,-0.210697,-10.007671
62.858915,0.077515,-0.068985,-10.002434
62.892153,0.032921,-0.212792,-9.927612
62.925618,-0.046389,-0.123455,-9.897534
62.957946,-0.111484,-0.229103,-9.804007
62.992213,-0.244517,-0.119265,-9.790091
63.025547,-0.178823,-0.117769,-9.813435
63.058565,-0.304972,-0.185557,-9.785452
63.092192,-0.050879,0.018705,-9.812537
63.125548,-0.124204,-0.174484,-10.064536
63.158487,-0.116123,-0.158023,-9.842615
63.192219,-0.175232,-0.078114,-10.012909
63.225158,0.097118,-0.137073,-9.875537
63.259259,-0.021399,-0.190645,-9.818373
63.291978,-0.215336,0.059408,-9.873891
63.325473,-0.091731,-0.172987,-9.755523
63.358881,0.015264,0.017658,-9.528964
63.392255,0.139617,-0.011523,-9.943923
63.425503,-0.253046,-0.185707,-10.181407
63.458673,-0.087990,0.077216,-9.513700
63.492144,0.003292,-0.058361,-9.665588
63.525448,0.072876,-0.044294,-10.052115
63.558789,0.050430,-0.178075,-9.624136
63.592154,0.001646,-0.049532,-9.905765
63.625464,-0.240177,0.008829,-9.908009
63.658830,-0.282825,-0.161764,-9.832589
63.692209,0.171940,-0.266813,-9.819121
63.725549,-0.078413,-0.008979,-9.976845
63.758906,-0.170144,-0.123605,-9.949610
63.792251,-0.175681,-0.045491,-10.092968
63.825493,-0.292402,-0.098914,-9.768243
63.858854,-0.299585,-0.178374,-9.656759
63.892163,-0.204412,-0.010924,-9.678756
63.925509,0.124054,-0.227457,-9.649426
63.958916,-0.025290,0.027684,-9.511904
63.992159,-0.039805,-0.192740,-9.649127
64.025500,-0.076767,-0.066890,-9.883019
64.058974,-0.311257,0.016012,-9.675763
64.092181,0.137821,-0.245265,-9.549016
64.125503,-0.121061,-0.085296,-9.669628
64.158977,-0.282077,-0.094874,-9.815679
64.192138,-0.158173,-0.121360,-9.789342
64.225521,-0.042199,-0.076019,-9.756421
64.258955,-0.102655,-0.074073,-9.702998
64.291565,-0.010774,-0.164158,-9.825706
64.325351,-0.237932,0.005686,-9.801763
64.358956,-0.260229,0.121211,-9.683096
64.392032,0.002245,-0.056116,-9.808048
64.425525,-0.090235,-0.065693,-9.819421
64.458957,-0.087691,0.012869,-9.706141
64.495271,-0.149344,-0.047586,-9.777969
64.525470,0.041301,0.039206,-9.779316
64.558886,-0.051477,-0.057014,-9.663642
64.591412,-0.291355,0.012570,-9.668431
64.625522,-0.237783,0.173735,-9.688932
64.658876,-0.214438,0.064047,-9.672172
64.691650,-0.188400,-0.022147,-9.581937
64.725219,-0.150990,0.211445,-9.863864
64.758969,-0.209350,-0.056715,-9.760611
64.791512,-0.321433,0.134080,-9.852492
64.825200,0.271602,-0.113729,-9.809843
64.858894,0.050879,-0.064646,-9.814333
64.891765,-0.029929,0.009128,-9.842765
64.925507,0.297041,0.028283,-9.738763
64.958905,0.250203,-0.105498,-9.710032
64.991753,-0.183013,-0.065693,-9.647331
65.025503,-0.065843,-0.035914,-9.663044
65.058871,0.045192,-0.015713,-9.823461
65.091727,-0.201419,-0.031874,-9.773630
65.125502,-0.077665,-0.252597,-9.755224
65.158000,-0.132733,-0.185857,-9.784554
65.192203,-0.065244,-0.085895,-9.946318
65.225499,-0.023195,-0.096969,-9.877781
65.258890,-0.164907,-0.190944,-9.938087
65.292186,-0.074073,-0.204861,-9.908608
65.325580,-0.329065,-0.175382,-9.900377
65.358905,0.186904,-0.319039,-10.152975
65.391603,-0.109539,-0.368870,-9.661547
65.425506,0.142011,-0.313352,-9.686687
65.458927,0.143508,-0.518962,-9.853539
65.492144,0.307816,-0.377848,-9.797872
65.525238,0.180320,-0.212343,-9.651072
65.558965,0.243469,-0.312604,-9.799368
65.595008,0.035166,-0.464342,-9.911900
65.625217,-0.165206,-0.303027,-9.823910
65.658920,-0.045641,-0.202916,-10.025629
65.691506,-0.306618,-0.356300,-9.921627
65.725517,-0.254094,-0.305421,-9.833936
65.758942,-0.281478,-0.272949,-9.761658
65.792180,-0.247061,-0.357647,-9.594208
65.825516,0.081106,-0.266364,-9.608873
65.858948,-0.014665,-0.081855,-9.690877
65.892116,-0.210697,-0.004639,-9.738913
65.925591,0.052225,0.112232,-9.767644
65.958945,0.001347,0.100859,-9.491852
65.992030,-0.030677,-0.010625,-9.680402
66.025113,-0.014815,-0.041601,-9.843962
66.058958,-0.386827,-0.142460,-9.968764
66.091684,0.061503,-0.017359,-9.821516
66.125501,0.168199,0.115524,-9.967417
66.158894,0.137522,0.243170,-9.907261
66.191908,0.190346,0.167002,-9.648079
66.225500,-0.255740,0.346573,-9.853240
66.258876,-0.101757,0.277438,-9.554104
66.291847,0.144106,0.239129,-9.467161
66.325550,-0.202766,0.461798,-9.765549
66.358857,-0.424387,0.080059,-9.671873
66.392216,-0.306918,0.397302,-9.919681
66.425542,0.206807,0.146500,-9.842017
66.458691,0.019154,0.398050,-9.886012
66.492191,-0.163709,0.303476,-9.806252
66.525524,0.165355,0.153085,-9.526120
66.558637,0.044594,0.271153,-9.716167
66.592172,-0.010325,0.319787,-9.586426
66.625545,-0.172089,0.292402,-9.606479
66.659743,0.173885,0.175232,-9.551111
66.692216,0.375155,0.235987,-9.418078
66.725528,-0.029330,0.282526,-9.542431
66.758943,0.099961,0.128693,-9.655412
66.792146,-0.112531,0.398948,-9.594507
66.825525,0.154880,0.097717,-9.644638
66.858951,-0.310060,0.233892,-9.851594
66.892169,-0.184061,-0.055966,-9.747742
66.925499,-0.421694,0.239429,-9.877781
66.958958,0.243319,0.008230,-9.922076
66.991521,-0.196481,0.165804,-9.851743
67.025556,-0.087391,0.051328,-9.877332
67.058876,0.143807,0.023943,-9.754326
67.091942,0.139168,0.086494,-9.779616
67.125391,0.315896,-0.237034,-9.731131
67.158947,0.133482,-0.118816,-9.727989
67.191771,0.153983,-0.268160,-9.831841
67.225548,0.101757,-0.263821,-9.805953
67.258943,0.262324,-0.237334,-9.825556
67.291820,0.048634,-0.355851,-9.966819
67.325660,-0.152337,-0.354654,-9.872993
67.358819,0.022895,-0.400893,-10.000937
67.392243,0.081705,-0.362585,-9.822713
67.425647,-0.118368,-0.465240,-9.906812
67.458751,-0.200073,-0.496964,-9.886461
67.492256,-0.416905,-0.506990,-9.841717
67.525496,-0.240177,-0.630446,-9.862218
67.558840,0.338343,-0.470328,-9.732628
67.592175,-0.003442,-0.468083,-9.785452
67.625543,-0.018556,-0.410620,-9.618899
67.658882,0.010924,-0.439052,-9.634163
67.691254,-0.080658,-0.332956,-9.675614
67.724852,-0.076767,-0.351661,-9.636706
67.758810,-0.066142,-0.278785,-9.663642
67.792322,0.112831,-0.333704,-9.755373
67.825549,-0.040254,-0.485142,-9.814183
67.858841,0.712749,-0.601864,-10.091771
67.892223,-0.490230,0.222818,-10.306209
67.925490,-0.269208,-0.385630,-9.764352
67.958833,-0.469729,-0.131237,-10.265955
67.991906,-0.069434,-0.324576,-9.962479
68.025511,-0.073924,-0.181966,-10.098654
68.058946,-0.200970,-0.155928,-9.960085
68.091471,0.196930,-0.085147,-9.819869
68.125680,0.027385,-0.148446,-9.585229
68.158844,0.236286,0.124054,-9.754027
68.191722,-0.021848,0.046090,-9.905016
68.225878,-0.252448,0.337894,-9.880325
68.258168,-0.024841,0.459853,-9.594358
68.292163,-0.433067,0.392513,-9.907860
68.325542,-0.039955,0.454316,-10.055557
68.358243,-0.673244,0.673244,-10.009467
68.392185,0.066741,0.100859,-9.838425
68.425542,0.224464,0.301830,-9.831542
68.458065,-0.105498,0.388024,-9.626381
68.492217,0.206807,0.243619,-9.574754
68.525338,0.207106,0.394309,-9.383810
68.558856,0.248856,0.397003,-9.442470
68.592226,0.202317,0.285070,-9.341311
68.624950,0.048933,0.439352,-9.585229
68.658883,-0.239429,0.291953,-9.592562
68.692514,-0.132883,0.361238,-10.071719
68.724752,0.364381,0.146052,-9.996747
68.758858,0.189298,0.358545,-10.017099
68.792216,0.129142,0.306169,-10.171530
68.825566,0.197529,0.281927,-9.980287
68.858050,0.294497,0.038608,-9.603186
68.892206,0.162812,0.306469,-9.608574
68.925446,0.077365,0.429026,-9.474494
68.958780,0.450874,0.071978,-9.333231
68.992127,0.070183,0.264120,-9.424812
69.025471,0.422292,0.131686,-9.321259
69.058813,0.237334,-0.084399,-9.536895
69.092152,0.731604,0.209650,-9.893045
69.125556,0.406281,0.259631,-9.583434
69.158859,0.018556,-0.024242,-10.223307
69.192164,-0.008530,-0.195733,-9.789193
69.224621,-0.058510,0.030078,-9.649725
69.258855,0.143208,0.059259,-9.581039
69.292298,0.198277,-0.011523,-9.552757
69.325484,-0.109239,0.004489,-9.767045
69.358851,0.020651,-0.292702,-9.515196
69.392209,-0.189149,-0.322481,-9.691775
69.425487,-0.205011,-0.323229,-9.566374
69.458832,0.135726,-0.381440,-9.805504
69.492231,0.130638,-0.395806,-9.821516
69.524969,0.222818,-0.335200,-9.995251
69.558851,0.076617,-0.337744,-9.794430
69.592211,-0.082902,-0.381290,-9.924470
69.625332,-0.155030,-0.333554,-10.119904
69.658682,0.014366,-0.323079,-10.171830
69.692211,0.037860,-0.380243,-10.079051
69.725016,-0.278186,-0.408226,-10.047925
69.758884,-0.172987,-0.445487,-9.900078
69.791903,-0.223267,-0.543054,-9.875686
69.825498,-0.527940,-0.177327,-9.784554
69.858884,0.703920,-0.503848,-9.673219
69.891803,0.300483,-0.341036,-9.744749
69.925520,0.203814,-0.458805,-9.860123
69.958885,-0.286117,-0.260229,-9.864762
69.995202,-0.193788,-0.357347,-9.758217
70.025510,0.067040,-0.494720,-9.836031
70.058862,0.414511,-0.334302,-10.013657
70.092162,0.299136,-0.242272,-9.834235
70.125496,-0.062251,0.070332,-10.015004
70.158872,0.168199,-0.101308,-9.953052
70.192123,0.112681,-0.261576,-9.871646
70.225504,-0.151139,0.016610,-9.942876
70.258848,0.099812,-0.177028,-9.878230
70.291880,-0.043097,0.109988,-9.949011
70.325501,0.126897,0.194536,-9.822413
70.358921,-0.170743,-0.101009,-9.462372
70.392140,0.486639,0.077066,-9.582685
70.425063,0.369020,0.119415,-9.520584
70.458879,0.287913,0.084099,-9.723200
70.491475,0.656184,0.194685,-9.833188
70.525477,-0.289409,0.120762,-9.768243
70.558910,-0.194237,0.110736,-9.977443
70.591957,-0.076916,0.133482,-9.765250
70.625510,0.229852,0.324426,-9.771086
70.659128,0.200522,0.215635,-9.951555
70.691914,0.240626,-0.026337,-9.594806
70.725501,-0.037560,0.063000,-9.487812
70.758910,-0.052824,0.017059,-9.626980
70.791869,-0.064795,0.003442,-9.588671
70.825585,0.348518,-0.129740,-9.519835
70.858657,0.220424,0.385480,-9.554104
70.892170,0.425435,-0.116871,-9.409548
70.925618,0.323378,0.242871,-9.748190
70.958262,0.143358,0.014216,-9.623239
70.992171,0.256787,0.125700,-9.947515
71.025542,0.144256,0.120612,-9.938087
71.067231,-0.263821,0.107144,-10.099851
71.092142,0.319338,-0.016161,-9.808048
71.125494,0.138120,0.101009,-10.014854
71.158877,0.025589,0.032173,-9.937938
71.192186,0.040254,0.054470,-9.927912
71.225480,0.241673,0.013318,-9.731879
71.258848,0.155329,-0.040254,-9.524923
71.292263,-0.018256,0.250353,-9.697611
71.325508,0.049083,0.577771,-9.806102
71.358855,-0.363632,0.659327,-9.656759
71.392236,0.545000,-0.257984,-9.805653
71.425140,0.052076,-0.043396,-9.820169
71.458881,-0.333853,-0.021698,-9.893943
71.492244,-0.138120,-0.029779,-9.923722
71.525147,0.186305,-0.099662,-9.956493
71.558897,0.231947,-0.133033,-9.708685
71.592863,-0.060605,-0.023943,-9.788444
71.625053,0.079311,-0.101308,-9.750136
71.658913,-0.244517,-0.088589,-9.736518
71.692212,-0.087990,-0.347172,-9.697162
71.725390,-0.129740,-0.039206,-9.916688
71.758883,-0.409423,-0.221322,-9.963826
71.791954,-0.243170,-0.564004,-9.867905
71.825502,-0.131985,-0.341635,-9.849499
71.858828,0.348069,-0.272201,-9.703298
71.892159,0.510731,-0.299436,-9.899480
71.925557,0.388174,-0.309462,-10.039545
71.958869,-0.206058,-0.145902,-9.867306
71.992248,-0.184510,-0.167151,-9.966071
72.025474,0.184959,-0.352110,-9.967567
72.058721,-0.153384,-0.239578,-9.905316
72.092164,0.087541,-0.195284,-9.828249
72.125339,0.263671,-0.394010,-9.806551
72.158722,0.112232,0.219377,-10.075011
72.192130,0.395357,-0.296592,-9.803858
72.225460,0.542156,0.047736,-9.689530
72.258809,0.207405,0.452071,-9.780962
72.292245,-0.418402,0.194985,-9.963078
72.325439,-0.292851,-0.028283,-9.964574
72.358781,-0.072278,-0.018107,-9.677260
72.391894,0.091881,0.072278,-9.684293
72.425456,0.233293,0.104451,-9.893643
72.458816,0.313951,0.026038,-9.767345
72.492252,-0.042948,0.151439,-9.683545
72.525491,0.347172,0.347920,-9.852192
72.558852,0.132733,-0.061952,-9.658704
72.592238,-0.044594,-0.043247,-9.719459
72.625025,0.407178,0.381889,-9.729335
72.658837,0.488734,0.293151,-9.559940
72.692210,0.414361,0.400744,-9.744898
72.725064,0.294946,0.383236,-9.638652
72.758883,0.056864,-0.094275,-9.675464
72.791913,-0.167899,0.319937,-9.842166
72.825502,0.338343,-0.074971,-9.585229
72.858887,0.018256,0.031575,-9.634163
72.891868,0.162363,-0.009278,-9.974301
72.925500,0.112083,0.011074,-9.671274
72.958878,0.265317,-0.070781,-9.716466
72.991821,0.222669,0.244816,-9.862218
73.025503,-0.323229,0.281778,-9.822413
73.058864,0.299436,-0.421245,-9.944223
73.091745,0.205011,0.224015,-10.035954
73.124520,0.010774,-0.190346,-9.794879
73.158012,0.163560,-0.092330,-9.912349
73.191878,-0.013917,-0.183462,-9.812238
73.225470,-0.001496,-0.334602,-9.690129
73.258786,0.039955,0.032772,-9.746544
73.291504,0.130189,-0.087391,-9.924919
73.325532,0.232246,-0.274595,-9.889603
73.358818,-0.039206,0.044294,-9.989864
73.392228,0.018406,-0.101608,-9.963676
73.425532,0.000599,-0.106246,-10.053911
73.458832,-0.218030,-0.177327,-10.105089
73.492217,-0.111484,-0.215486,-10.009617
73.524825,0.201270,-0.347920,-9.869701
73.558907,0.179871,-0.295545,-9.938985
73.592035,0.056116,-0.332507,-9.754475
73.625580,0.172688,-0.314549,-9.793233
73.658850,0.071829,-0.262923,-9.852342
73.692164,-0.583757,0.043396,-9.644189
73.725543,-0.192590,-0.312454,-9.778867
73.758319,0.257984,-0.056266,-10.062441
73.792176,-0.237633,-0.083351,-9.868803
73.825617,0.511480,-0.282227,-9.927014
73.858917,0.558318,-0.164009,-9.861919
73.892170,0.347920,0.046838,-9.781411
73.925545,0.022895,-0.207255,-9.882719
73.958372,0.152935,-0.075570,-9.751183
73.992227,-0.076767,-0.165954,-9.619348
74.025420,0.214289,-0.098315,-9.705542
74.058857,-0.182265,0.262474,-9.978940
74.092364,0.258433,-0.291355,-9.555151
74.125424,0.582410,0.052824,-9.880624
74.158311,0.110436,-0.151289,-9.818074
74.192213,-0.028731,0.053572,-9.789492
74.225457,0.109988,-0.310659,-9.854587
74.258159,-0.098166,-0.191244,-9.853240
74.292164,0.045791,-0.172389,-10.074711
74.325357,0.049382,0.301231,-10.148485
74.358804,0.061952,-0.029180,-9.989265
74.392254,0.276839,-0.086494,-10.029819
74.425486,0.040254,0.208004,-9.825556
74.458829,0.339989,0.001945,-9.852791
74.492263,-0.134978,0.256787,-9.691476
74.525545,0.170743,-0.709906,-10.925432
74.558784,0.217880,-0.461200,-9.187329
74.592117,0.191693,0.461349,-9.745198
74.625463,0.403737,0.022596,-9.362860
74.658787,0.365578,0.634636,-9.623089
74.692147,-0.167750,0.447582,-9.894242
74.725541,-0.084698,0.312903,-9.672471
74.758083,0.060755,0.265766,-9.621443
74.792172,0.034867,0.448929,-9.842914
74.825560,0.071978,0.385780,-9.695217
74.858077,-0.044594,0.390269,-9.733675
74.892190,0.078563,0.332058,-9.467311
74.925789,0.431870,0.640322,-9.626082
74.958207,0.186455,0.641819,-9.558743
74.992188,0.276839,0.642866,-9.659003
75.025620,-0.014815,0.649001,-9.554553
75.058009,0.114926,0.688657,-9.691177
75.092313,0.033221,0.746718,-9.792485
75.125206,-0.105498,0.708260,-9.629224
75.158884,-0.145004,0.724721,-9.708685
75.191283,0.408675,0.260828,-9.544975
75.225103,0.085895,0.395207,-9.577149
75.258777,0.357497,0.092928,-9.529712
75.292107,0.025140,0.162512,-9.529412
75.325462,0.432917,0.309162,-9.649127
75.357879,0.280581,0.252298,-9.621593
75.392112,0.374856,0.102356,-9.679355
75.425506,0.066890,0.008530,-9.691625
75.458808,0.242122,-0.111933,-9.833038
75.492206,0.069285,-0.059857,-9.801314
75.525688,0.144555,-0.225961,-9.838276
75.558857,0.355851,-0.239279,-9.857579
75.592166,0.516867,-0.331758,-9.943624
75.625513,0.412117,-0.278486,-9.998693
75.659060,-0.097866,-0.330412,-10.096110
75.691942,0.264419,-0.370366,-10.061094
75.725472,-0.116871,-0.337744,-9.971907
75.758818,0.120313,-0.421245,-10.118856
75.792139,-0.021998,-0.425136,-10.226898
75.825452,0.068088,-0.451622,-10.059897
75.858092,0.132135,-0.517316,-9.820767
75.892159,0.181367,-0.446834,-9.853838
75.925545,-0.272500,-0.554128,-10.356190
75.958852,-0.774702,-1.077579,-10.658768
75.991565,0.860597,-1.353820,-9.331884
76.025543,-0.264269,0.441447,-9.687735
76.064821,0.031874,-0.980311,-9.675614
76.092156,0.001048,-0.212493,-9.946318
76.125491,0.147847,0.168498,-9.620844
76.158838,-0.628800,-0.180769,-10.084737
76.192168,-0.285968,-0.213092,-9.111759
76.225290,-1.117833,0.485442,-10.062441
76.258484,0.134379,0.113579,-10.018296
76.292209,-1.004104,-0.244816,-9.895439
76.325217,-0.002544,-0.186156,-9.631469
76.358845,0.015862,-1.176942,-9.910403
76.392212,-0.950382,1.122172,-10.220464
76.425202,0.113280,-0.179572,-9.842466
76.458832,0.873616,-0.097418,-10.139806
76.492210,-0.152486,-0.028283,-9.433791
76.529726,-0.896361,-0.043845,-10.205350
76.558820,0.336846,-0.043546,-9.621144
76.592170,-1.133994,-0.324576,-9.682198
76.625509,-1.505558,-0.211745,-9.372287
76.658837,-1.552246,-0.845782,-10.314589
76.692098,-0.862243,-0.656783,-10.303815
76.725530,0.432767,0.264718,-9.719609
76.758807,1.165868,-0.636282,-10.131127
76.792166,0.975672,0.624610,-9.803858
76.825585,-0.892471,-0.141562,-10.695131
76.857977,-0.404335,-0.282227,-9.390544
76.892175,-0.878105,-0.346872,-9.647780
76.925727,-0.479755,-0.263521,-9.836929
76.958214,-1.388088,0.601265,-10.130229
76.992171,-1.113792,-0.215935,-9.567422
77.025619,0.123605,-0.081406,-9.751782
77.058822,-0.651994,0.467185,-9.799668
77.092168,-0.691500,0.014066,-10.103742
77.125561,-0.141263,0.620569,-10.341525
77.157890,-1.207619,0.461648,-9.918335
77.192124,-1.680341,0.050130,-9.843363
77.225443,-0.333404,0.087092,-9.596453
77.257932,-0.321134,0.959361,-9.900078
77.292122,-0.229552,0.228355,-9.415085
77.324781,0.434862,0.335948,-9.734723
77.358761,-0.013169,0.603061,-9.564728
77.391949,-0.821091,0.643614,-8.971843
77.425169,-0.707213,0.735944,-9.767644
77.458447,-0.432468,0.163410,-9.053249
77.492152,0.655586,0.353457,-9.389945
77.525520,1.024306,0.540510,-9.620545
77.558912,0.540211,0.495318,-9.210972
77.592194,0.318291,0.092180,-9.563381
77.624680,0.550686,0.339241,-9.740409
77.658854,0.735794,0.102056,-9.629524
77.692117,-1.484458,0.492774,-10.235428
77.725453,2.447560,0.215486,-9.672621
77.758773,0.946492,0.416007,-9.742654
77.792114,0.478409,0.067639,-9.770936
77.825443,-0.168947,-0.165804,-9.713024
77.858787,-0.006884,-0.219377,-9.827052
77.892124,-0.011523,0.150840,-9.676063
77.925457,-0.019454,-0.007781,-9.998992
77.958860,0.391915,0.000150,-10.281219
77.992108,0.536769,-0.271303,-10.152975
78.025463,0.660524,-0.314998,-10.141901
78.058733,0.785177,-0.403587,-10.248297
78.092133,0.810616,-0.358245,-10.205499
78.124444,0.816153,-0.468233,-9.911900
78.158790,0.677284,-0.351960,-10.065434
78.192150,0.719783,-0.393711,-9.925068
78.225504,0.728761,-0.464342,-9.649875
78.259211,0.521805,-0.353457,-9.717364
78.292167,0.526145,-0.494869,-9.623987
78.325615,0.549190,-0.590491,-9.387551
78.359625,0.608448,-0.683120,-9.751782
78.392174,0.395506,-0.661422,-9.672471
78.425502,0.433216,-0.682521,-9.723649
78.458849,0.347321,-0.596177,-9.875237
78.492166,0.506392,-0.823934,-9.795029
78.525500,0.417953,-0.755547,-9.879278
78.557872,0.314849,-0.712600,-9.941978
78.592112,0.301830,-0.628949,-9.864164
78.625452,0.472872,-0.509684,-10.009916
78.658805,0.425136,-0.472123,-9.971009
78.691538,0.401492,-0.495318,-9.882271
78.725390,0.288961,-0.451024,-9.801314
78.758068,0.320535,-0.527342,-9.663792
78.792160,0.468682,-0.423340,-9.550811
78.825496,0.407178,-0.455214,-9.595854
78.859018,0.194835,-0.447133,-9.758815
78.892146,0.172688,-0.355402,-9.657058
78.925500,0.301680,-0.451024,-9.825107
78.958882,0.575078,-0.446235,-10.036253
78.992238,0.363183,-0.355701,-9.880176
79.025497,0.155629,-0.353457,-9.841418
79.058923,0.306469,-0.334452,-9.679205
79.092130,0.164607,-0.338642,-9.920579
79.124866,0.044444,-0.196780,-9.947216
79.158978,0.029629,-0.130788,-10.018146
79.192088,0.416905,-0.161764,-9.916988
79.225496,0.286267,-0.015862,-10.061393
79.258892,0.217880,0.190944,-10.029370
79.291870,0.245265,0.122558,-9.952902
79.325499,0.276391,0.289559,-9.780663
79.358943,0.274146,0.357198,-9.872544
79.391967,0.395357,0.375903,-9.950358
79.425511,0.224315,0.569840,-9.855933
79.458877,-0.033969,0.765424,-9.795927
79.491910,0.001347,0.831267,-10.021289
79.525456,0.346423,0.688208,-9.810891
79.558797,0.246761,0.748215,-9.534351
79.592145,0.389072,0.501753,-9.534949
79.625467,0.257386,0.589144,-9.572061
79.658574,0.187652,0.815704,-9.499484
79.692185,0.330561,0.451024,-9.296269
79.725532,0.163410,0.517166,-9.377076
79.758926,0.090684,0.635983,-9.532106
79.791970,0.201569,0.508487,-9.595854
79.825506,0.223118,0.446385,-9.435437
79.858834,0.383535,0.235688,-9.524175
79.892185,0.397003,0.140814,-9.659602
79.925940,0.326521,0.104600,-9.430798
79.958838,0.253495,0.063898,-9.497239
79.992170,0.353307,0.028283,-9.536895
80.025622,0.294647,0.042948,-9.528066
80.058938,0.147698,-0.093976,-9.692074
80.092214,0.189598,-0.036363,-9.931204
80.125650,0.250353,-0.225213,-9.750285
80.158294,0.110885,-0.238830,-9.882121
80.192215,0.071380,-0.301231,-9.925817
80.225545,0.339390,-0.290158,-9.927912
80.258721,0.310808,-0.318889,-9.922525
80.292168,0.319488,-0.354953,-10.077255
80.325544,0.281628,-0.392214,-9.966370
80.358778,0.172838,-0.381739,-10.089227
80.392208,0.124653,-0.391017,-10.117958
80.425547,0.088439,-0.347621,-10.033260
80.458179,-0.052674,-0.382487,-9.969961
80.492219,0.150541,-0.491128,-10.038947
80.524748,0.095921,-0.446385,-9.883617
80.558857,0.268759,-0.547095,-9.850995
80.592255,0.309013,-0.536769,-9.889304
80.625085,0.409872,-0.663517,-9.874639
80.658214,0.238232,-0.615781,-9.839024
80.691303,0.124204,-0.589593,-9.930007
80.725135,0.261277,-0.591239,-9.961432
80.758797,0.277139,-0.527342,-9.884515
80.791920,0.096819,-0.614883,-9.891698
80.825452,0.230300,-0.684916,-9.776174
80.858777,0.211296,-0.564603,-9.749388
80.891904,0.291355,-0.428727,-9.903370
80.925501,0.128543,-0.432767,-10.136514
80.958819,0.002394,-0.264868,-9.939135
80.992136,0.024541,-0.300782,-9.941529
81.025468,0.380542,-0.300932,-10.014256
81.058242,0.282825,-0.196481,-9.771385
81.092133,0.346723,-0.057613,-9.712426
81.125455,-0.024541,-0.118068,-9.677709
81.158790,0.043396,0.056565,-9.661697
81.192120,0.101308,0.027534,-9.859226
81.225481,0.017359,0.045043,-9.952303
81.258027,0.114776,0.022147,-9.467311
81.292197,0.136923,0.283723,-9.756870
81.324523,0.025739,0.157873,-9.393986
81.358782,0.180469,0.124353,-9.381865
81.391403,0.035316,0.376502,-9.499334
81.425505,0.180619,0.214588,-9.456536
81.457960,0.108641,0.393860,-9.522529
81.491367,0.019304,0.380093,-9.505769
81.525480,0.419449,0.346423,-9.629224
81.557901,0.189149,0.403138,-9.599894
81.592131,0.344628,0.325024,-9.742953
81.625486,-0.126448,0.469280,-9.884366
81.658802,0.052375,0.394160,-9.837827
81.691315,0.083800,0.430822,-9.507714
81.725816,0.127795,0.555774,-10.035655
81.758807,-0.010774,0.520757,-10.132623
81.792169,-0.156227,0.729958,-9.759114
81.825544,-0.011373,0.625657,-9.903221
81.858766,0.217730,0.263671,-9.662445
81.892216,0.281628,0.176728,-9.594806
81.925545,0.339091,0.251400,-9.570265
81.957876,0.526743,0.115225,-9.468358
81.992142,0.383685,0.271452,-9.425111
82.025525,-0.092779,0.151888,-9.781262
82.057859,0.331609,-0.011523,-9.782908
82.092135,0.189298,0.207854,-9.611118
82.125485,0.230151,-0.126149,-9.832140
82.158808,-0.051776,0.081406,-9.926415
82.192148,-0.051178,-0.097268,-9.733226
82.225542,0.133930,-0.331010,-9.820169
82.258073,0.123156,-0.286117,-9.706590
82.292250,0.309013,-0.326970,-9.685041
82.325537,0.030378,-0.319338,-9.974750
82.358847,0.528838,-0.532579,-9.901275
82.392214,0.188400,-0.312903,-10.004080
82.425437,0.142759,-0.430523,-9.957840
82.458726,0.048484,-0.421245,-10.130827
82.492165,0.108790,-0.507140,-10.016800
82.525461,0.234341,-0.434264,-9.961432
82.558810,0.168348,-0.469729,-9.895289
82.592119,0.252448,-0.548741,-10.076208
82.625466,0.001945,-0.393711,-10.088329
82.658771,0.012121,-0.485591,-10.095212
82.692108,0.353457,-0.465838,-9.968914
82.725458,0.347770,-0.387875,-10.023982
82.758788,-0.026337,-0.353606,-10.112272
82.792121,-0.038009,-0.320535,-10.003631
82.825485,0.130938,-0.344179,-9.870299
82.858796,0.278037,-0.375454,-9.756421
82.892125,0.227158,-0.333853,-9.697761
82.925504,0.227757,-0.320834,-9.630721
82.958338,0.175082,-0.263521,-9.532256
82.992174,0.400594,-0.348518,-9.443069
83.025512,0.523900,-0.291205,-9.604833
83.058843,0.314549,-0.055069,-9.763454
83.091284,-0.079161,0.442045,-9.928061
83.125475,0.108491,0.029180,-10.011861
83.158854,0.182115,0.176878,-10.101497
83.191763,0.130339,0.150391,-9.977294
83.225499,0.041002,0.159220,-10.111374
83.259802,0.092629,0.068686,-9.903071
83.292177,0.212044,0.417205,-9.907411
83.325610,0.219676,0.521655,-9.715119
83.358881,0.389670,0.304224,-9.559940
83.392186,0.329214,0.428428,-9.411344
83.424947,0.017658,0.543354,-9.500980
83.458880,-0.031275,0.663666,-9.353732
83.492174,0.038907,0.516268,-9.464767
83.525457,0.248258,0.504746,-9.429152
83.558712,0.146650,0.593334,-9.410147
83.592122,0.061354,0.612788,-9.504871
83.625519,0.140066,0.616679,-9.550063
83.658242,0.176130,0.560263,-9.648379
83.692265,0.207255,0.675488,-9.628177
83.725046,0.247958,0.520757,-9.716616
83.758835,-0.035016,0.599021,-9.747293
83.792148,-0.018107,0.386228,-9.621144
83.825489,0.034268,0.266065,-9.754924
83.857998,0.015563,0.296592,-9.762706
83.891503,-0.076617,0.258733,-9.668431
83.925463,0.397302,0.327419,-9.412092
83.958785,0.202617,-0.039206,-9.651072
83.992137,0.091581,0.086344,-10.026227
84.025533,0.200073,-0.057313,-9.838724
84.058824,0.000898,-0.216384,-9.901126
84.092188,0.142310,-0.235688,-10.075460
84.124616,0.200222,-0.350164,-10.077555
84.158803,0.095023,-0.299436,-9.966370
84.192168,0.055069,-0.318141,-9.812537
84.224789,0.326820,-0.893219,-9.727540
84.258796,0.354953,-0.259631,-9.912648
84.291444,0.405532,-0.278635,-9.709882
84.325444,0.490979,-0.343131,-9.884066
84.358784,0.109838,-0.459853,-10.369807
84.392118,-0.019454,-0.323528,-9.989565
84.425452,0.016311,-0.262324,-10.170333
84.458879,0.180170,-0.333255,-10.024282
84.491905,-0.111035,-0.276091,-10.077255
84.525503,0.003292,-0.361088,-9.853838
84.558857,-0.195883,-0.253645,-9.814183
84.592173,0.219077,-0.341485,-9.619946
84.625488,0.188101,-0.059259,-9.827352
84.658847,0.162213,-0.248707,-9.684742
84.692177,-0.056116,-0.099513,-9.777969
84.725279,0.029330,-0.140664,-9.756870
84.759069,0.064047,0.031275,-9.752829
84.791906,0.221472,-0.165505,-9.634163
84.825558,-0.078563,-0.157125,-9.784105
84.858137,-0.073325,-0.139018,-9.683245
84.891897,-0.050130,-0.036214,-9.686089
84.925441,0.160866,-0.155778,-9.753428
84.958633,0.283424,-0.152486,-9.838425
84.992222,0.234490,-0.096370,-9.859375
85.025532,-0.121660,0.038758,-9.908308
85.058427,-0.097418,0.054470,-9.907560
85.092210,0.101458,-0.048933,-9.861470
85.125543,0.205909,0.008829,-9.949909
85.158869,-0.073475,-0.146650,-9.819421
85.191876,0.143208,-0.061803,-9.797722
85.225303,0.103553,-0.083950,-9.777072
85.258822,0.028283,-0.013618,-9.707338
85.291785,-0.010475,-0.077216,-9.702998
85.325498,0.061952,0.023045,-9.636108
85.359156,0.069584,0.181816,-9.642243
85.391312,-0.068237,0.123605,-9.651072
85.425572,0.089636,0.101308,-9.758516
85.458490,0.116123,0.106995,-9.717963
85.492260,-0.083650,0.023494,-9.728438
85.524928,-0.056864,0.047287,-9.894392
85.558784,-0.101907,0.147099,-9.829447
85.592117,0.177028,0.147548,-9.834983
85.625499,0.115824,0.132733,-9.742055
85.658809,0.135726,0.112531,-9.825406
85.692154,-0.045192,0.218179,-9.756421
85.725563,0.224614,-0.102206,-9.563531
85.758816,0.558767,0.401342,-9.422567
85.792170,0.017658,0.252597,-9.462672
85.825650,0.498910,-0.263821,-9.739511
85.858087,-0.099064,-0.153234,-9.713473
85.892173,-0.112980,-0.203963,-10.026826
85.925675,0.381440,0.222818,-9.813285
85.958486,0.538715,0.216234,-9.901275
85.992172,0.213690,-0.638078,-10.064685
86.025541,0.619073,-0.196032,-9.773330
86.058598,0.174783,-0.209350,-9.904567
86.092221,0.851319,0.124204,-10.061692
86.125532,0.760336,-0.082902,-9.977144
86.158835,1.247124,-0.003591,-10.007671
86.192233,0.047736,-0.307816,-10.097607
86.225127,0.270255,0.030976,-9.795627
86.258928,0.725918,-0.192590,-10.037151
86.291934,0.186904,-0.417354,-10.266853
86.325506,0.545449,-0.186754,-10.071120
86.358880,0.767668,-0.202916,-9.604084
86.391942,0.966245,-0.322181,-10.081894
86.425517,-0.069584,0.822887,-10.040144
86.458880,1.406943,-0.143807,-9.992707
86.493991,1.016674,-0.159519,-9.685041
86.525480,0.696588,-0.414511,-9.413738
86.558900,-0.318440,0.268011,-9.701203
86.592257,1.163025,-0.738338,-9.117595
86.625528,-0.357946,-0.205609,-9.873741
86.658274,-0.699431,0.197678,-10.006025
86.692150,-0.663966,0.116422,-9.844261
86.725452,0.547244,-0.151139,-9.401767
86.758775,0.995425,0.136474,-9.667533
86.792213,1.103617,0.701676,-9.684742
86.824550,-0.352708,-0.071679,-9.730233
86.858778,-0.363333,-0.053273,-9.750136
86.892213,0.164607,-0.190495,-9.746245
86.925482,1.773419,-0.022297,-9.596004
86.958813,1.419812,-0.252597,-9.575951
86.992192,0.714994,0.087541,-9.717663
87.025478,0.662020,0.832763,-9.934646
87.058895,-0.596626,0.419449,-9.535847
87.092178,-0.158023,0.774552,-9.869102
87.125487,0.602163,-0.449827,-9.868054
87.158879,0.207255,0.573881,-10.133072
87.191919,0.840993,0.119415,-9.810592
87.225568,1.364295,-0.307067,-9.817326
87.258843,-0.678930,-0.310659,-9.952004
87.292218,-0.729809,-0.260229,-9.937638
87.325164,-0.800590,0.112980,-9.729036
87.358350,-0.329663,-0.405832,-10.079350
87.391908,0.573282,0.048484,-9.672621
87.425510,-0.101159,-0.046689,-10.244406
87.458851,0.041301,0.081106,-9.857280
87.491265,1.519774,-0.471375,-9.752979
87.525530,1.213455,-0.061354,-10.253684
87.558839,0.749412,0.000000,-9.912498
87.592167,0.191992,-0.317542,-10.096709
87.625614,0.480204,-0.268011,-9.858178
87.658996,0.264718,-0.281927,-9.797423
87.692156,0.348818,-0.684766,-9.879727
87.725550,1.029693,0.094574,-9.403563
87.758550,0.645260,-0.179123,-9.661847
87.792313,0.169845,-0.148147,-9.781262
87.824981,0.593634,0.257984,-10.253535
87.858881,0.506990,0.245414,-10.176918
87.892217,-0.021549,0.418551,-9.887059
87.924994,0.731006,-0.059708,-10.103592
87.958974,1.606118,0.049083,-9.461325
87.991847,1.607913,-0.280132,-9.281454
88.025505,0.821540,-0.082902,-10.023085
88.058925,0.981957,-0.153983,-9.335924
88.091897,0.603510,-0.150840,-9.922225
88.125500,0.719184,-0.304074,-10.139507
88.159039,0.623712,0.230300,-9.508762
88.191732,1.149108,0.353307,-9.636258
88.225557,-0.128992,-0.057313,-9.741307
88.258870,0.369618,0.075719,-10.027873
88.291583,0.668305,-0.134379,-10.066780
88.325503,0.622664,-0.074223,-10.306808
88.358887,0.083501,-0.248856,-9.666635
88.391755,-0.172239,0.323977,-10.201908
88.425666,1.449442,-0.538266,-9.447109
88.458816,0.340587,0.274744,-10.176319
88.492172,-0.187353,-0.135277,-9.505170
88.525502,-1.059921,0.609795,-9.627279
88.558034,1.358758,0.097567,-9.481826
88.592186,1.176792,0.045940,-9.310784
88.624826,1.025952,-0.226709,-9.600792
88.658840,0.876010,-0.085446,-9.881971
88.691272,0.998867,0.743576,-9.736668
88.725531,0.293151,-0.331758,-9.487812
88.758843,0.616679,0.021249,-10.267452
88.792008,0.612339,-0.333404,-9.137647
88.825571,1.054983,-0.074971,-10.339729
88.858867,0.720830,-0.268160,-9.452945
88.892166,0.879452,-0.083950,-9.774528
88.925586,0.016461,0.108940,-9.589719
88.958202,0.880499,0.169545,-9.814632
88.992170,1.106759,-0.244517,-9.421969
89.025406,0.911774,-0.239578,-9.605132
89.058150,0.356300,0.029330,-9.356126
89.092171,0.980610,-0.090833,-9.539439
89.125492,1.016076,0.361986,-9.947665
89.158827,-0.098315,-0.129142,-10.249345
89.192210,-0.382188,-0.285070,-9.986871
89.225257,-0.175531,0.352409,-9.912648
89.258848,1.055881,0.243170,-9.755224
89.291838,-0.240626,-0.438753,-10.035804
89.325138,1.094489,-0.540660,-9.639101
89.358845,0.517615,0.213092,-9.940182
89.392174,0.890376,0.010625,-9.547370
89.425552,1.537731,-0.102655,-9.929558
89.458474,-0.378597,-0.289858,-9.537044
89.492168,0.994377,0.001496,-10.019942
89.525282,0.502950,-0.264419,-9.955596
89.558828,0.182564,-0.232695,-10.107483
89.592169,0.260977,-0.545897,-10.048973
89.625482,0.696289,-0.247210,-9.625932
89.658802,0.573581,-0.574030,-9.478684
89.692202,0.036214,-0.336846,-9.857729
89.726897,1.006498,-0.408525,-9.855484
89.758855,0.692996,-0.572235,-10.397192
89.792398,0.473021,0.826777,-10.182754
89.825477,0.121809,-0.115524,-9.984177
89.858830,0.755847,0.267412,-9.943475
89.892212,1.152251,-0.047437,-9.405508
89.925340,0.892620,0.014066,-9.816877
89.958834,-0.294198,-0.348219,-9.959037
89.992212,-0.095472,-0.550985,-9.844261
90.024972,-0.553978,-0.231947,-9.879876
90.058958,1.460665,-0.414960,-9.511755
90.092148,1.115439,-0.118068,-9.769140
90.125496,0.982855,0.382637,-10.032662
90.158836,-0.398948,0.067938,-9.968016
90.191869,0.128843,-0.193039,-9.765549
90.225505,0.209350,-0.173885,-9.338618
90.258813,0.264120,0.697486,-9.635210
90.292169,0.070183,0.140515,-10.226898
90.325619,1.056629,-0.255740,-10.012759
90.358271,-0.185557,0.825131,-10.050469
90.392169,0.451622,0.297041,-9.847853
90.425626,0.186754,-0.063000,-9.701502
90.459915,0.388024,-0.204712,-9.683395
90.492176,0.662170,0.198127,-9.833786
90.525588,1.343943,-0.332058,-9.848601
90.558982,0.542905,0.282676,-10.182305
90.592169,0.630146,-0.015264,-9.615906
90.625607,0.531083,-0.175232,-9.858777
90.658795,0.227158,0.137073,-9.546621
90.691843,-0.020800,0.320984,-9.659752
90.725629,0.765124,-0.035016,-9.661398
90.759846,-0.096669,-0.228505,-9.516693
90.792172,0.069584,0.036513,-9.471351
90.825680,0.623712,-0.410171,-10.182454
90.859888,1.078327,0.022147,-10.175421
90.892150,-0.202467,0.115075,-9.793383
90.925498,-0.131536,0.041152,-9.989565
90.958871,0.868228,-0.330112,-9.638801
90.992172,0.441746,-0.027684,-9.986422
91.025531,0.187203,-0.104301,-9.783806
91.058846,0.432767,0.109389,-10.100151
91.092152,0.684018,-0.377100,-9.692823
91.125502,0.179721,0.022895,-9.845907
91.159044,0.355701,-0.078862,-9.632367
91.191546,0.375753,-0.316644,-10.006325
91.225502,0.438454,-0.212044,-9.557545
91.258880,0.305721,0.251999,-10.145343
91.291507,0.269956,-0.090534,-10.140554
91.325500,0.168199,-0.303476,-9.750884
91.358880,0.265766,0.111334,-9.905166
91.391423,0.718585,-0.290158,-9.915641
91.425660,-0.462846,0.398649,-9.761658
91.458720,0.442793,-0.336547,-9.575054
91.492167,-0.878853,0.229253,-10.063787
91.525575,-0.557869,-0.234939,-9.983878
91.558154,0.458955,-0.264569,-9.821216
91.592246,0.473770,-0.184659,-9.770038
91.625476,0.265018,-0.093676,-9.793383
91.658807,0.216533,-0.019304,-9.810741
91.692074,0.171491,-0.258583,-9.786798
91.725145,0.076468,-0.018256,-10.017548
91.758105,0.117470,-0.180769,-9.869850
91.792164,-0.173137,0.047886,-9.897833
91.825049,-0.098764,-0.144106,-9.808347
91.858840,-0.166852,0.028582,-9.886012
91.892032,-0.347022,-0.023045,-9.924769
91.925504,-0.295844,-0.041451,-9.853090
91.958453,0.029031,0.010176,-9.924620
91.992172,-0.036812,0.068237,-9.849050
92.025520,-0.072128,-0.045641,-9.739960
92.058831,-0.180170,0.180619,-9.877482
92.092191,-0.044145,0.298538,-9.799668
92.125481,0.019753,0.226260,-9.686987
92.158832,0.216533,0.100710,-9.694319
92.192221,-0.108341,0.106546,-9.636407
92.225305,-0.146351,0.017359,-9.568020
92.258831,-0.176130,0.131536,-9.668880
92.291297,-0.158472,0.201419,-9.817774
92.324962,-0.168498,0.022596,-9.763155
92.358840,0.071230,0.132135,-9.776623
92.392036,0.031126,0.148446,-9.787098
92.425504,0.033670,0.093228,-9.897385
92.458877,-0.162961,0.158322,-9.812687
92.491503,-0.046090,0.185707,-9.763753
92.525501,-0.051627,-0.031874,-9.772582
92.558916,0.004340,0.045641,-9.777969
92.591544,-0.207704,-0.079311,-9.599146
92.625556,0.129441,0.021998,-9.548118
92.658922,-0.153085,-0.038907,-9.461475
92.691442,0.211146,-0.074373,-9.658554
92.725566,-0.184360,-0.057613,-9.516842
92.758835,-0.104750,-0.086943,-9.527766
92.791586,-0.078862,-0.096969,-9.716616
92.825500,-0.001197,-0.143508,-9.798171
92.858831,-0.007632,-0.131536,-9.813584
92.891564,-0.138270,-0.228804,-9.933748
92.925554,-0.166403,-0.121809,-10.061543
92.958762,-0.049083,-0.325174,-10.009916
92.992187,-0.144555,-0.308713,-10.145044
93.025542,0.070781,-0.293300,-10.054959
93.064839,0.172089,-0.334452,-10.089376
93.092220,0.123904,-0.328017,-9.937040
93.125517,0.094425,-0.294946,-9.843513
93.158799,0.095622,-0.360490,-9.674865
93.192168,0.428278,-0.401642,-9.636258
93.225528,1.140728,-0.766022,-10.037151
93.258830,0.996323,-0.800141,-9.430199
93.292211,-0.089935,-0.261127,-10.428767
93.325422,0.105648,-0.317393,-9.964125
93.358860,0.698234,-0.294497,-10.367263
93.392216,0.464192,-0.077066,-10.099702
93.425140,0.462247,-0.345226,-9.543778
93.458839,0.436508,-0.578370,-9.988816
93.492212,-0.070482,0.043546,-9.949011
93.525138,0.405682,0.122707,-10.056006
93.558954,1.094788,0.013169,-9.680103
93.592182,0.353008,0.286267,-9.577598
93.625552,0.566698,0.419898,-9.647181
93.658877,1.039420,0.187802,-9.794281
93.691696,-0.639873,0.631493,-10.146989
93.725501,0.057762,0.076019,-9.880624
93.758890,0.316196,0.403587,-9.985973
93.791590,-0.304224,0.411368,-10.244406
93.825565,-0.328766,-0.124054,-9.843363
93.858848,-0.227008,-0.129890,-9.624735
93.892152,-0.412566,0.108192,-9.399073
93.925537,0.925392,-0.305421,-9.877632
93.958032,0.284471,0.193937,-9.470154
93.992189,0.516119,0.363483,-9.660949
94.025539,1.043311,0.353906,-9.617253
94.058158,1.060968,-0.145154,-9.396230
94.092051,1.163923,-0.042050,-9.778119
94.125458,-0.175232,0.088888,-9.886161
94.158823,-0.409124,-0.392962,-9.810592
94.192145,-0.713647,0.518064,-9.781411
94.225561,-0.226559,0.171491,-10.438793
94.258800,1.838064,0.429475,-9.689381
94.292167,0.803583,-0.052824,-9.534650
94.325581,0.515520,0.045641,-9.757319
94.358849,0.435162,0.067489,-9.677409
94.392177,0.509983,-0.237483,-9.605431
94.425619,0.512527,-0.182564,-9.933897
94.458534,-0.128094,-0.269507,-10.042538
94.492143,0.023943,-0.203514,-9.847703
94.525515,1.219740,-0.292253,-9.817326
94.558643,0.874663,-0.510133,-9.929408
94.591899,0.958762,-0.366027,-9.461026
94.625456,0.853563,-0.581064,-9.662445
94.658809,1.030890,0.104900,-9.771834
94.692138,0.615182,-0.502800,-10.085785
94.725251,0.506242,-0.091133,-9.836330
94.758826,0.182415,-0.529586,-9.807000
94.792139,0.637329,-0.421095,-9.894841
94.825535,-0.204412,0.031575,-9.730982
94.858819,0.369618,-0.147698,-9.905465
94.892170,0.589743,-0.067788,-9.723649
94.925542,0.484544,-0.318739,-9.509061
94.958038,0.462846,-0.177626,-10.007222
94.992223,0.647355,-0.309312,-9.546472
95.025176,0.872119,0.100261,-9.881672
95.058803,0.360490,-0.266514,-9.439327
95.091789,0.764526,-0.120612,-9.874639
95.125476,0.477361,-0.055368,-9.581339
95.158834,0.566099,0.264419,-10.064087
95.191529,0.126448,-0.079909,-9.740110
95.225467,0.249006,-0.169097,-9.746844
95.258854,0.286417,-0.075570,-9.247635
95.292513,1.544166,-0.331160,-9.729186
95.325550,0.934670,-0.348668,-9.341760
95.358861,0.624759,-0.118517,-10.779979
95.392001,0.393860,-0.505494,-9.952154
95.425542,0.053572,-0.243619,-9.483472
95.458512,0.585104,-0.034119,-9.553954
95.492170,1.215101,0.040553,-9.537643
95.525576,-0.711552,-0.134230,-9.893045
95.558505,-0.797747,-0.291804,-9.900826
95.592170,-0.597524,-0.291504,-9.808497
95.625543,0.163260,-0.351960,-9.665737
95.658416,0.563855,-0.259930,-9.955296
95.691295,1.162426,-0.251101,-9.272924
95.725625,1.337209,-0.055518,-10.036852
95.758248,1.347235,-0.234490,-9.399373
95.792204,0.453568,-0.379644,-9.819121
95.825887,0.292552,0.048784,-9.813884
95.858118,0.999615,-0.291654,-9.527168
95.892187,1.024156,0.022446,-9.599894
95.925548,0.196182,-0.340138,-9.768841
95.958209,0.880499,-0.745820,-9.324851
95.992456,-1.092394,0.294497,-10.570927
96.025626,2.254221,-0.265766,-9.576251
96.058837,1.591902,-0.066441,-9.984327
96.092172,1.049745,0.123605,-10.220613
96.125808,1.220787,-0.028881,-9.690129
96.158837,0.845333,0.178973,-9.599745
96.191780,1.105263,-0.340138,-9.917886
96.224950,0.476313,-0.167750,-10.200411
96.258844,0.693745,0.192142,-9.889753
96.293818,0.526594,0.312155,-9.753578
96.325517,0.874064,-0.017808,-9.827950
96.358827,1.067403,0.085296,-9.614559
96.392167,1.336760,-0.081555,-9.709882
96.425543,0.210697,0.001197,-9.913995
96.458267,0.677883,-0.139168,-9.740858
96.492173,0.525247,-0.076916,-9.850247
96.525551,0.791013,0.083052,-9.814183
96.558375,1.000662,0.131087,-9.893045
96.592246,1.274210,0.464641,-10.019493
96.625506,2.046517,0.109090,-10.151029
96.658830,1.801103,-0.207255,-9.845608
96.692210,0.547244,-0.007931,-9.385606
96.724754,-0.089935,0.189747,-10.395247
96.759158,0.007482,-0.417205,-9.574754
96.792147,0.974625,-0.335200,-9.820917
96.825189,1.114690,0.046838,-9.779017
96.858876,0.881397,0.065244,-9.892596
96.891932,0.621318,-0.144256,-9.684443
96.925503,1.333019,-0.314549,-9.618749
96.958876,1.174697,0.048185,-9.651671
96.991526,1.206421,-0.148147,-10.134718
97.025504,1.144769,-0.313053,-9.777371
97.058914,0.958613,0.066741,-9.946467
97.091654,0.550686,-0.191992,-9.962928
97.125515,0.770512,-0.266664,-9.607376
97.158885,0.700329,-0.276839,-9.722751
97.191526,1.183526,0.041152,-9.732179
97.225506,0.843388,-0.204712,-9.906962
97.258879,1.280794,-0.251849,-9.777820
97.291441,0.893069,-0.001197,-9.881073
97.325508,0.983304,0.079760,-9.470752
97.357952,1.201932,0.321283,-9.688483
97.392118,1.704134,-0.110137,-9.549914
97.425489,0.018705,0.142161,-10.118407
97.458336,0.893817,-0.097866,-9.631469
97.492158,0.628500,0.240327,-10.158661
97.525442,0.853264,0.327568,-9.382613
97.558546,2.461327,0.659626,-10.283763
97.592113,-1.259245,0.824982,-10.561799
97.625483,1.599085,-0.133631,-10.270744
97.658793,1.141027,-0.253645,-9.613961
97.691309,0.556372,0.140215,-9.737715
97.725469,0.788469,-0.193788,-9.813884
97.758841,0.224015,-0.272500,-9.496341
97.792308,0.551285,-0.219975,-9.582236
97.825186,0.990337,-0.155030,-9.964275
97.858831,1.206122,-0.134828,-9.841268
97.892165,1.103617,0.071978,-10.086234
97.925228,0.548142,-0.144854,-9.717514
97.958839,0.505494,0.244367,-10.043586
97.992151,1.052588,-0.170743,-9.734723
98.025631,0.559964,0.143957,-9.833637
98.058836,0.688358,0.029629,-9.628775
98.092170,0.824832,-0.256338,-9.648079
98.125695,0.602911,-0.216533,-9.723499
98.158611,0.852067,-0.082902,-9.897833
98.192172,0.896810,-0.128992,-9.832739
98.225624,0.992731,0.004938,-9.924769
98.258177,0.650498,-0.109539,-9.653167
98.291475,0.779041,-0.083650,-9.626082
98.325497,0.961606,-0.084698,-9.711827
98.358036,0.767219,-0.151738,-9.798022
98.392172,0.758241,-0.184659,-9.857579
98.425278,0.382338,-0.130938,-9.797124
98.458835,0.543802,-0.248557,-9.824209
98.492272,0.809868,-0.016161,-9.953201
98.528285,0.894266,-0.105349,-9.884066
98.558369,0.843537,-0.234640,-9.815829
98.592117,0.665163,-0.208752,-9.715419
98.625601,0.731604,-0.175980,-9.652269
98.658831,0.649750,-0.164757,-9.859375
98.692207,0.808371,-0.054769,-9.875836
98.725501,0.618025,-0.080209,-9.859375
98.758914,0.710804,-0.092629,-9.893943
98.792231,0.589294,-0.252597,-9.712426
98.825486,0.817799,-0.140515,-9.757019
98.857925,0.680127,-0.211296,-9.795478
98.892165,0.638078,-0.108491,-9.740559
98.925446,0.706165,-0.101907,-9.944522
98.958848,0.768117,-0.043546,-9.779616
98.991685,0.757642,-0.202018,-9.760162
99.025752,0.692398,-0.102655,-9.833337
99.058828,0.594980,-0.187652,-9.777072
99.092188,0.810616,-0.058810,-9.825556
99.125585,0.723075,0.001796,-9.806252
99.157919,0.701526,-0.019753,-9.824359
99.192174,0.686562,-0.044294,-9.844561
99.225555,0.612189,-0.046988,-9.909057
99.258625,0.627154,-0.049981,-9.889004
99.292179,0.609196,-0.087691,-9.755822
99.325496,0.588845,-0.169396,-9.796525
99.358334,0.521955,-0.147698,-9.721404
99.391944,0.834110,-0.041451,-9.828698
99.425425,0.721728,-0.085745,-9.714670
99.458499,0.691949,-0.077365,-9.831841
99.492177,0.551285,-0.107294,-9.856382
99.525521,0.600218,-0.072577,-9.849050
99.558807,0.684018,0.000748,-9.791138
99.592184,0.571037,-0.129890,-9.720955
99.627337,0.548741,-0.087541,-9.769290
99.658808,0.477062,-0.152935,-9.757319
99.692148,0.522104,-0.128843,-9.819720
99.725607,0.684168,-0.027385,-9.866857
99.758839,0.725768,-0.093676,-9.833038
99.792196,0.746569,-0.157125,-9.809843
99.825546,0.794604,-0.057164,-9.868503
99.858803,0.744174,-0.083351,-9.850995
