time_tick,acc_X_value,acc_Y_value,acc_Z_value
0.017171,0.115973,-2.248535,-9.973553
0.048248,0.132284,-2.351340,-9.917736
0.080963,0.089337,-2.620847,-9.895738
0.114306,0.078862,-2.626683,-9.633564
0.147643,0.167002,-2.204390,-9.853539
0.180942,0.106546,-2.234169,-9.516094
0.215357,0.184809,-2.060434,-9.501130
0.247749,0.187802,-2.430351,-9.477486
0.281134,0.184659,-2.221599,-9.483472
0.314301,0.161614,-2.235217,-9.282202
0.347742,0.240327,-2.564282,-9.387551
0.381008,0.277588,-2.513852,-9.652569
0.414352,0.362735,-2.219205,-9.266789
0.447651,0.248856,-2.007011,-9.504123
0.481074,0.274595,-2.211573,-9.953501
0.514466,0.318291,-1.927850,-9.536446
0.547673,0.280431,-1.875924,-9.009703
0.581395,0.216084,-2.205438,-9.424064
0.614583,0.178674,-2.188528,-9.407304
0.647947,0.191842,-2.059386,-9.565028
0.680936,0.250802,-2.436038,-9.885263
0.714282,0.181816,-2.209029,-9.713773
0.749826,0.160268,-2.102633,-9.566823
0.781026,0.159070,-2.491405,-9.863116
0.814378,0.137971,-2.577151,-9.712127
0.847996,0.319787,-1.894480,-9.661248
0.880996,0.100710,-2.333831,-10.275981
0.914267,0.101159,-2.810594,-9.799368
0.947684,0.384433,-2.147825,-9.991959
0.981179,0.069734,-2.704198,-9.237609
1.014305,0.066441,-2.589422,-9.441572
1.047739,0.147548,-2.458035,-9.900078
1.081023,0.302428,-2.224592,-10.130977
1.114368,0.360939,-2.347000,-9.933897
1.147714,0.276391,-2.181495,-9.417779
1.180921,0.127496,-2.510859,-9.203341
1.214822,0.148895,-2.328444,-9.356276
1.247689,0.151289,-2.559493,-9.306145
1.281331,0.286117,-2.651673,-9.423765
1.314283,0.137971,-2.418230,-9.493349
1.347695,0.099363,-2.629376,-9.517890
1.381021,0.156078,-2.702252,-9.759863
1.414604,0.199324,-2.246440,-9.735920
1.447682,0.234939,-2.275171,-9.566225
1.481078,0.265616,-2.018683,-9.629524
1.514291,0.203963,-2.205587,-9.498736
1.547872,0.229403,-2.090213,-9.517740
1.581991,0.278785,-2.136003,-9.549764
1.614343,0.198875,-1.984565,-9.322456
1.647717,0.137073,-2.370644,-9.005662
1.681149,0.242571,-2.225041,-9.012845
1.714370,0.249006,-2.545726,-9.612015
1.747692,0.256039,-2.198554,-9.554702
1.781036,0.225512,-2.392342,-9.697910
1.815465,0.141263,-2.263350,-9.243594
1.847871,0.194087,-2.322159,-9.468508
1.881002,0.238681,-2.340116,-9.645984
1.914387,0.325922,-2.178951,-9.735172
1.947803,0.164607,-2.459531,-9.722602
1.981036,0.075570,-2.522980,-9.627129
2.014318,0.104750,-2.870750,-9.598548
2.047855,0.258134,-2.354931,-9.703896
2.084032,0.150690,-2.774979,-9.588821
2.115077,0.040404,-2.956496,-9.516543
2.147758,0.032024,-2.868955,-9.189124
2.180960,0.246761,-2.510859,-9.727091
2.214377,0.295694,-2.368100,-9.837677
2.247691,0.183013,-2.673222,-9.867306
2.281041,0.226260,-2.279212,-9.730233
2.314638,0.210398,-2.194514,-9.288637
2.347788,0.083501,-2.286395,-9.229678
2.381468,0.228954,-2.176407,-9.107569
2.414333,0.122258,-2.723352,-9.251526
2.447816,0.163560,-2.310188,-9.273972
2.481021,0.261277,-2.114455,-9.522379
2.514337,0.227008,-2.605284,-9.563381
2.547693,0.271003,-2.398178,-9.611118
2.581053,0.326671,-2.584783,-9.497987
2.614451,0.133631,-2.291333,-9.456985
2.647690,0.517166,-1.954187,-10.349905
2.680954,0.312006,-2.231925,-9.885413
2.714676,0.329065,-1.567211,-9.754326
2.747699,0.294946,-1.970349,-9.605880
2.781010,0.200671,-2.249582,-9.950807
2.814516,0.256488,-2.197806,-9.820169
2.847622,0.264419,-2.084676,-9.200348
2.881789,0.146052,-2.385758,-9.522080
2.915005,0.157724,-2.155607,-9.585529
2.947716,0.074373,-2.354183,-9.254219
2.980998,0.217730,-2.173863,-9.543928
3.014840,0.308115,-2.335178,-9.783207
3.048331,0.236137,-2.095151,-9.374233
3.080968,0.155329,-2.189576,-9.138844
3.114362,0.019753,-2.406558,-9.213666
3.148226,0.180918,-2.513553,-9.167127
3.180964,0.210997,-2.380370,-9.385755
3.214502,0.299884,-2.282055,-9.578196
3.247660,0.113130,-2.768843,-9.352983
3.280960,0.109988,-2.620547,-9.502926
3.314395,0.157724,-2.590170,-9.678607
3.347916,0.232844,-2.665440,-9.765998
3.380998,0.187353,-2.754627,-9.648977
3.414351,0.016910,-2.704647,-9.516244
3.447860,0.175830,-2.386955,-9.631020
3.480967,0.181816,-2.434092,-9.253172
3.514668,0.104600,-2.370494,-9.202143
3.547738,0.244517,-2.220851,-9.567721
3.581007,0.140814,-2.073303,-9.487512
3.614820,0.125999,-2.446363,-9.626082
3.647898,0.179272,-2.203343,-9.669927
3.681069,0.293899,-2.046517,-9.965921
3.714333,0.312454,-2.405061,-10.248896
3.747672,0.214438,-2.472700,-9.689381
3.781033,0.304972,-2.342810,-9.438879
3.814576,0.178674,-2.513403,-9.658854
3.847687,0.235538,-2.383513,-9.642094
3.881136,0.317093,-2.222347,-9.655262
3.914247,0.196032,-2.790242,-9.605880
3.947719,0.314400,-2.271730,-9.544975
3.981053,0.331758,-2.097844,-9.601241
4.014287,0.265616,-2.195262,-9.540336
4.047694,0.145303,-2.406857,-9.297765
4.081032,0.096370,-2.611419,-9.088564
4.114932,0.215935,-2.541835,-9.183288
4.147710,0.257536,-2.321411,-9.196906
4.180967,0.122408,-2.491705,-9.219352
4.214351,0.130938,-2.402966,-9.445014
4.247688,0.176130,-2.576103,-9.081531
4.281018,0.239429,-2.373936,-9.232671
4.314295,0.212792,-2.267390,-9.455040
4.347737,0.186754,-2.374085,-9.572510
4.381101,0.140365,-2.414339,-9.420772
4.414359,0.098166,-2.812240,-9.448905
4.448051,0.136923,-2.389199,-9.631170
4.481024,0.101907,-2.621146,-9.638801
4.514392,0.253794,-2.302556,-9.717214
4.547786,0.328466,-2.442323,-9.821964
4.580973,0.254692,-2.303304,-9.675015
4.614283,0.176130,-2.275620,-9.919532
4.647634,0.278785,-2.190773,-9.979688
4.680952,0.306319,-2.399674,-9.838276
4.714282,0.173436,-2.451002,-9.740708
4.747582,0.117919,-2.291482,-9.643440
4.780946,0.191244,-2.171170,-9.737416
4.814336,0.247659,-2.169075,-9.784554
4.847616,0.323528,-2.080785,-9.569517
4.880960,0.389820,-2.077044,-9.362261
4.914251,0.306169,-1.949249,-9.540336
4.947589,0.176878,-1.987109,-9.446510
4.980982,0.161614,-2.129419,-9.191369
5.014281,0.386677,-2.203941,-9.386354
5.047688,0.339390,-2.261105,-9.477337
5.080933,0.150391,-2.346252,-9.398625
5.114285,0.152187,-2.395484,-9.072104
5.148730,0.156227,-2.425563,-9.180744
5.181038,0.228954,-2.441874,-9.549614
5.215283,0.221023,-2.530911,-9.389496
5.247545,0.147698,-2.192269,-9.244492
5.280858,0.170144,-2.304202,-9.447558
5.314223,0.174334,-2.518940,-9.582985
5.347537,0.143508,-2.597053,-9.632217
5.380886,0.093527,-2.466116,-9.314825
5.415058,0.262773,-2.291034,-9.924470
5.447637,0.149793,-2.440078,-9.599595
5.481976,0.142909,-2.540189,-9.881223
5.514968,0.120612,-2.507866,-9.833337
5.547748,0.203814,-2.537944,-9.595854
5.580962,0.193189,-2.392491,-9.756720
5.614248,0.218030,-2.761062,-9.962479
5.647617,0.233892,-2.379921,-9.613362
5.680947,0.215486,-2.493650,-9.712127
5.714285,0.182415,-2.415686,-9.458033
5.747647,0.215187,-2.426909,-9.649576
5.780944,0.177327,-2.474047,-9.306744
5.814299,0.300034,-2.275022,-9.755373
5.847587,0.284022,-2.182393,-9.799219
5.880879,0.258134,-2.201547,-9.572210
5.914190,0.196631,-2.280858,-9.483472
5.948467,0.279982,-1.907648,-9.464617
5.981155,0.250353,-2.134806,-9.670526
6.015468,0.224315,-2.075548,-9.372437
6.048290,0.260977,-2.242100,-9.578795
6.080948,0.234790,-2.221150,-9.611118
6.114345,0.085895,-2.342960,-9.160842
6.152903,0.200671,-2.403715,-9.152312
6.181501,0.270854,-2.532857,-9.140640
6.215159,0.227457,-2.502629,-9.456686
6.248738,0.181218,-2.065821,-9.224739
6.281255,0.112083,-2.317221,-9.039930
6.314573,0.280431,-2.389349,-9.337121
6.347751,0.292103,-2.256017,-9.316770
6.381275,0.165056,-2.404463,-9.536296
6.414584,0.179422,-2.386805,-9.730233
6.448390,0.151289,-2.563234,-9.577747
6.482971,0.163709,-2.443669,-9.312430
6.514536,0.107593,-2.471802,-9.575054
6.548582,0.154282,-2.371541,-9.676212
6.581317,0.247509,-2.301509,-9.812088
6.616411,0.222519,-2.511458,-10.026227
6.649921,0.173436,-2.399076,-9.931204
6.683719,0.113579,-2.420175,-9.673968
6.715756,0.207854,-2.505322,-9.898881
6.749257,0.404635,-2.257962,-9.932401
6.783415,0.275642,-2.254820,-9.596752
6.815440,0.209650,-2.376779,-9.476439
6.848545,0.271901,-2.363161,-9.320810
6.882084,0.339689,-2.253473,-9.266191
6.915171,0.304523,-2.212770,-9.500382
6.948134,0.305721,-2.281307,-9.441722
6.981702,0.392813,-1.947753,-9.294174
7.015298,0.310210,-1.950297,-9.415235
7.049247,0.205160,-2.199003,-9.168474
7.083110,0.281927,-2.192269,-9.389945
7.114296,0.213092,-2.515947,-9.520883
7.148503,0.233293,-2.238808,-9.672022
7.181588,0.234341,-2.234319,-9.716017
7.215258,0.158173,-2.263948,-9.763454
7.248561,0.343281,-2.077343,-9.993156
7.281029,0.259032,-2.413890,-9.714820
7.314329,0.062850,-2.513702,-9.399073
7.347657,0.160118,-2.467762,-9.832739
7.380975,0.027983,-2.581939,-9.682048
7.414277,0.082453,-2.408354,-9.659602
7.447625,0.039206,-2.209328,-9.825855
7.480974,-0.028432,-2.445166,-9.652868
7.514623,0.123455,-2.735024,-9.554702
7.547877,0.082154,-2.622044,-9.725145
7.580942,0.379046,-2.258561,-9.597949
7.614281,0.335051,-2.473748,-9.381416
7.647638,0.616679,-2.601094,-9.388898
7.681131,0.321283,-2.477339,-9.725594
7.714287,0.058510,-2.434541,-9.364356
7.747685,0.348518,-2.292380,-9.645685
7.781031,0.182714,-2.091559,-9.628177
7.814282,-0.093976,-2.165483,-9.365553
7.847702,-0.106097,-2.081683,-9.414038
7.880990,0.248856,-2.573410,-9.462223
7.914299,0.186156,-2.380071,-9.664241
7.947688,0.184510,-1.932040,-9.818074
7.981026,0.194386,-2.269934,-9.557396
8.014295,0.374257,-2.128372,-9.843513
8.047657,0.327119,-2.228333,-9.867007
8.081073,0.259481,-2.209777,-9.627429
8.114351,0.254094,-2.259010,-9.681599
8.147764,0.340587,-2.549467,-9.669478
8.180964,0.341485,-2.310637,-9.544526
8.214446,0.223567,-2.344306,-9.541534
8.247701,0.147698,-2.470755,-9.578196
8.280950,0.340138,-2.340266,-9.905316
8.314369,0.219676,-2.601692,-9.524175
8.350726,0.236735,-2.256466,-9.417779
8.380973,0.171790,-2.360617,-9.402216
8.414295,0.010924,-2.517144,-9.309587
8.447826,0.023793,-2.422270,-9.504871
8.481049,-0.024841,-2.271879,-9.858777
8.514308,0.258433,-2.317820,-9.646433
8.547733,0.187952,-2.438432,-9.694169
8.580967,0.134978,-2.517144,-9.095897
8.614558,0.021998,-2.290585,-9.541683
8.647674,0.142161,-2.336824,-9.871646
8.681002,0.070332,-2.402218,-10.018446
8.714409,0.098315,-2.545277,-9.646134
8.747817,0.119415,-2.199452,-9.499035
8.781147,0.046389,-2.245991,-9.666485
8.814374,0.208453,-2.362862,-9.433192
8.847681,0.214588,-2.409102,-9.467909
8.881038,0.293899,-2.153512,-9.681599
8.914375,0.233144,-2.444118,-9.528964
8.947721,0.276391,-2.143186,-9.693421
8.981006,0.206657,-2.293129,-9.581788
9.014501,0.237783,-2.332784,-9.525372
9.047722,0.289110,-2.327097,-9.538690
9.081327,0.209051,-2.194514,-9.582087
9.114302,0.285668,-2.192419,-9.538690
9.147679,0.269058,-2.328594,-9.135253
9.181434,0.046988,-2.298665,-9.148422
9.214296,0.379644,-1.884903,-9.442769
9.247782,0.312903,-2.011201,-9.568320
9.281043,0.352110,-2.041728,-9.496641
9.314358,0.311257,-2.132711,-9.555450
9.347649,0.124204,-2.673671,-9.190022
9.381034,0.185557,-2.400722,-9.614260
9.420899,0.228505,-2.235217,-9.918335
9.447622,0.092479,-2.352537,-9.461026
9.480929,0.066741,-2.393539,-9.638053
9.514313,0.141712,-2.423916,-10.170333
9.547679,0.203963,-2.079738,-9.714670
9.580919,0.218628,-1.661785,-9.417031
9.614304,0.128094,-2.058339,-9.642393
9.647820,0.127945,-1.913634,-9.544826
9.681013,0.317692,-2.037239,-9.598099
9.714363,0.285968,-2.281307,-9.807150
9.747693,0.060755,-2.680853,-9.084823
9.781119,0.002394,-2.501282,-9.493648
9.814486,0.182564,-2.926866,-9.682647
9.847654,0.377998,-2.823463,-9.319164
9.881009,0.426482,-2.324254,-9.406107
9.914340,0.212643,-2.349394,-9.499933
9.947802,0.316495,-2.278613,-9.322456
9.980979,0.160567,-2.318568,-9.136151
10.014681,0.077515,-2.174162,-9.410746
10.047761,0.237334,-1.974389,-9.330836
10.081094,0.234191,-2.141540,-9.538840
10.114495,0.189747,-2.271730,-9.563232
10.147746,0.121211,-2.074351,-9.786798
10.180976,0.104301,-2.292231,-9.862218
10.214376,0.101009,-2.238359,-10.146989
10.247702,0.161465,-2.233720,-9.883168
10.280965,0.222519,-2.204390,-9.816577
10.314286,0.091581,-2.618602,-9.568170
10.347641,0.163260,-2.513253,-9.576251
10.381159,0.207854,-2.532707,-9.743851
10.414298,0.240177,-2.505023,-9.717514
10.447789,0.213690,-2.268138,-9.618001
10.481009,0.244816,-2.506968,-9.397427
10.520513,0.243170,-2.555004,-9.683245
10.547626,0.227158,-2.553956,-9.260205
10.581026,0.019304,-2.497690,-8.885050
10.614383,0.180469,-2.535849,-9.398774
10.647682,0.215486,-2.658856,-9.454441
10.681020,0.456261,-2.337423,-9.394435
10.714289,0.267711,-2.287442,-9.287440
10.747670,0.181667,-2.354931,-9.325449
10.780943,0.057463,-2.272029,-9.328741
10.814343,0.071380,-2.614711,-9.798919
10.847704,0.292702,-2.081982,-9.663942
10.881113,0.199923,-2.330390,-9.674566
10.914361,0.125401,-2.216811,-9.599745
10.947853,0.036962,-2.477788,-9.761509
10.981062,0.192142,-1.906601,-9.751034
11.014274,0.011971,-2.481529,-9.412691
11.047678,0.184061,-2.114904,-9.533752
11.081056,0.264718,-1.975736,-9.807000
11.114276,0.288212,-2.249433,-9.640148
11.148187,0.321433,-2.208431,-9.607227
11.181075,0.234341,-2.137051,-9.317368
11.214302,0.262623,-2.073153,-9.412841
11.247678,0.379943,-2.021527,-9.520284
11.281023,0.245414,-2.242400,-9.155155
11.314406,0.323378,-2.095600,-9.271877
11.347711,0.220574,-2.077942,-9.533004
11.381006,0.167600,-2.477189,-10.160756
11.414587,0.117170,-2.742656,-9.886610
11.447714,0.070631,-2.988819,-9.591664
11.481102,0.226260,-2.488113,-9.643440
11.514343,0.163260,-2.651673,-9.788444
11.547756,0.194536,-2.299264,-10.084737
11.581116,0.027385,-2.544080,-9.845608
11.614686,0.106097,-2.649279,-9.426309
11.647590,0.305571,-2.431249,-9.716317
11.680977,0.130788,-2.504724,-9.523876
11.714278,0.024541,-2.593163,-9.376777
11.747710,0.110287,-2.452947,-9.395931
11.780952,0.225512,-2.385009,-9.798171
11.814723,0.071978,-2.476890,-9.216808
11.847640,0.142161,-2.422420,-9.148870
11.881078,0.188251,-2.461626,-9.093652
11.914488,0.174933,-2.461028,-9.164134
11.947696,0.160866,-2.336525,-9.300758
11.981009,0.078712,-2.278314,-9.392938
12.014550,0.244367,-2.301209,-9.711827
12.047756,0.294797,-2.377826,-9.574305
12.080985,0.290756,-2.219953,-9.474494
12.114303,0.289709,-2.411646,-9.462522
12.147768,0.335350,-2.273974,-9.835732
12.180992,0.075570,-2.118196,-9.416731
12.214500,0.229852,-2.026165,-9.536146
12.247638,0.296143,-2.124631,-9.638502
12.281059,0.206807,-2.172217,-9.632516
12.314311,0.161465,-2.168027,-9.751782
12.347640,0.151888,-2.156505,-9.732029
12.381052,0.196332,-2.084975,-9.836779
12.414387,0.215336,-2.051306,-9.750136
12.447669,0.259780,-2.080486,-9.606628
12.481128,0.271003,-1.971247,-9.784703
12.514301,0.262623,-2.305100,-9.780513
12.547607,0.137821,-2.075847,-9.762556
12.581021,0.141862,-2.158600,-9.446510
12.614316,0.165355,-2.365256,-9.339815
12.647751,0.257536,-2.352537,-9.348195
12.681337,0.277288,-2.371242,-9.154856
12.714359,0.290307,-2.296870,-9.378423
12.747629,0.266215,-2.558146,-9.156802
12.781051,0.189149,-2.481080,-9.175956
12.814460,0.213391,-2.293278,-9.352535
12.847672,0.274595,-2.500534,-9.371689
12.880941,0.285519,-2.416883,-9.354929
12.914672,0.194835,-2.562187,-9.597949
12.947817,0.198127,-2.221898,-9.411344
12.981032,0.170743,-2.239556,-9.552607
13.014944,0.056864,-2.648381,-9.666485
13.047740,0.215635,-2.452498,-9.504721
13.081009,0.267113,-2.281307,-9.777969
13.114367,0.177925,-2.292530,-9.541085
13.147810,0.202916,-2.217409,-9.488859
13.181048,0.216084,-2.113407,-9.408950
13.214258,0.218778,-2.270682,-9.589120
13.247668,0.247210,-2.298067,-9.604084
13.281541,0.212942,-2.428406,-9.541833
13.314345,0.242871,-2.351190,-9.531807
13.347633,0.233293,-2.388301,-9.522828
13.381052,0.218778,-2.341463,-9.523876
13.414255,0.260079,-2.236264,-9.749986
13.447706,0.318739,-2.152315,-9.516543
13.481133,0.339989,-2.303903,-9.736069
13.514294,0.383236,-2.291482,-9.345052
13.547794,0.176130,-2.242998,-9.033645
13.580975,0.253196,-2.347599,-9.642243
13.614435,0.346274,-2.323506,-9.872843
13.647704,0.333105,-2.441425,-9.465365
13.680921,0.216084,-2.443520,-9.183288
13.714364,0.124054,-2.411945,-9.478085
13.747857,-0.057164,-2.281157,-9.303901
13.781055,0.004938,-2.280409,-9.244193
13.814293,0.228505,-2.172816,-9.453544
13.847750,0.043845,-2.419427,-9.638353
13.887840,0.262773,-1.901962,-9.192866
13.914310,0.319188,-1.892983,-9.621144
13.947630,0.144106,-2.451451,-9.292827
13.981025,0.222968,-2.435140,-9.078688
14.014428,0.124054,-2.607528,-9.272027
14.047682,0.199025,-2.558445,-10.015902
14.081008,0.262773,-2.414190,-9.782608
14.114498,0.140964,-2.427658,-9.276815
14.148051,0.160417,-2.549018,-9.664390
14.181134,0.201120,-2.487215,-9.492750
14.214442,0.054021,-2.387853,-9.336223
14.248260,0.169845,-2.168027,-9.573258
14.281024,0.223417,-1.856470,-9.144381
14.314395,0.100111,-2.157253,-9.536146
14.347781,0.182714,-1.872482,-9.666485
14.381145,0.180320,-2.308691,-9.604982
14.414300,0.297789,-2.220701,-9.680552
14.448035,0.208602,-2.560690,-9.773630
14.481038,0.279084,-2.918636,-9.881822
14.514317,0.307367,-2.629227,-9.730084
14.548108,0.214887,-2.505771,-9.997645
14.581017,0.163260,-2.431848,-9.596453
14.614291,0.324127,-2.468660,-9.729934
14.647673,0.405383,-2.246141,-9.629075
14.680932,0.334003,-2.058339,-9.544377
14.714348,0.163859,-1.965560,-9.333979
14.747758,0.202766,-2.072405,-9.406705
14.781300,0.292253,-2.128372,-9.530610
14.814311,0.212343,-2.165633,-9.272775
14.847678,0.168199,-2.150968,-9.301806
14.881045,0.201868,-2.236115,-9.423765
14.920385,0.288212,-2.206485,-9.487064
14.947632,0.149942,-2.382166,-9.311682
14.981069,0.062700,-2.468061,-9.572510
15.014599,0.303925,-2.222796,-9.560987
15.047649,0.160118,-2.310487,-9.532405
15.081077,0.243918,-2.128372,-9.615906
15.114285,0.013917,-2.496194,-9.521930
15.147682,0.167151,-2.389948,-9.726343
15.180950,-0.126299,-2.552909,-9.298513
15.214371,0.162363,-2.464021,-9.172963
15.247691,0.452221,-2.274872,-9.761060
15.280968,0.395955,-2.477040,-9.743402
15.314428,0.256937,-2.283551,-9.392190
15.347940,0.454166,-2.042626,-9.237459
15.381550,0.340887,-2.583585,-9.475691
15.414308,0.140365,-2.349245,-9.504572
15.447740,0.156826,-1.999230,-9.616654
15.481009,0.301531,-2.449954,-9.646284
15.514307,0.382487,-2.240155,-9.751632
15.547592,0.278635,-2.096797,-9.485268
15.581018,0.136175,-1.982470,-9.454890
15.614302,0.279234,-2.039334,-9.771235
15.647893,0.234790,-2.381268,-9.507265
15.681109,0.243020,-2.243297,-9.280706
15.714342,0.197678,-2.213219,-9.676362
15.747631,0.237483,-2.035892,-9.790390
15.781162,0.260229,-2.262901,-9.618300
15.815056,0.341635,-2.153961,-9.707338
15.847719,0.227158,-2.087070,-9.588821
15.881003,0.179721,-2.229680,-9.340264
15.914385,0.294946,-2.331736,-9.635509
15.947875,0.249604,-2.626683,-9.448605
15.981011,0.302728,-2.260656,-9.490954
16.014727,0.252597,-2.437235,-9.240602
16.057116,0.524798,-2.288939,-9.271428
16.080941,0.320236,-2.582688,-9.401019
16.114309,0.295844,-2.386057,-9.173412
16.147623,0.259331,-2.480332,-9.086619
16.181007,0.357497,-2.444866,-9.566374
16.214299,0.378297,-2.345504,-9.725594
16.247870,0.289409,-2.540788,-9.792186
16.281105,0.207555,-2.571764,-9.374532
16.314433,0.282975,-2.588524,-9.667683
16.347675,0.200372,-2.583436,-9.850546
16.381069,0.112382,-2.382465,-9.483771
16.414860,0.172089,-2.202146,-9.623837
16.447690,0.280431,-2.116251,-9.602887
16.481229,0.265167,-2.177006,-9.669179
16.514320,0.301979,-2.035144,-9.242846
16.547929,0.197379,-2.182393,-9.672770
16.581090,0.234640,-2.036491,-9.570714
16.614264,0.209500,-2.071807,-9.393836
16.647681,0.232545,-2.192419,-9.294922
16.680969,0.251251,-2.368848,-9.465814
16.714267,0.350913,-2.134058,-9.901425
16.747626,0.207854,-2.486168,-9.915940
16.781075,0.333105,-2.146329,-9.780214
16.814318,0.341036,-2.366753,-9.746095
16.847676,0.305272,-2.286245,-9.448007
16.880916,0.244517,-2.429154,-9.774079
16.914312,0.228505,-2.498439,-9.675763
16.947652,0.332656,-2.411197,-9.449653
16.981046,0.363483,-2.349694,-9.221298
17.014405,0.301531,-2.388301,-9.223093
17.047586,0.224464,-2.355979,-9.270979
17.080976,0.279383,-2.437684,-9.440225
17.114430,0.329214,-2.400871,-9.354480
17.151822,0.218628,-2.244195,-9.085572
17.180976,0.106396,-2.002372,-9.279658
17.214313,0.146201,-2.254221,-9.293426
17.247742,0.216384,-2.372888,-9.401019
17.281085,0.238381,-2.195112,-9.429900
17.314292,0.254543,-2.257962,-9.499933
17.347843,0.200821,-2.301359,-9.938686
17.380951,0.247360,-2.451151,-9.984177
17.414303,0.249006,-2.329492,-9.771535
17.447709,0.230899,-2.231925,-9.761509
17.481009,0.197529,-2.620697,-9.943923
17.514264,0.324127,-2.624139,-10.012310
17.547686,0.376202,-2.473748,-9.941978
17.581062,0.231498,-2.483025,-9.777969
17.614335,0.228205,-2.401470,-9.931353
17.647684,0.295395,-2.386057,-9.819121
17.681038,0.335948,-2.385608,-9.773330
17.714306,0.248856,-2.351040,-9.410895
17.747707,0.255740,-2.358373,-9.230725
17.780945,0.273697,-2.344306,-9.473147
17.814314,0.409124,-2.449655,-9.303601
17.847586,0.421694,-2.329641,-9.451748
17.881041,0.006734,-2.177305,-9.164583
17.914474,0.037560,-2.234768,-9.235214
17.947759,0.496515,-2.177455,-9.592263
17.981004,0.462546,-2.378126,-9.708834
18.014348,0.084848,-2.215464,-9.438130
18.047767,0.035615,-2.231176,-9.283100
18.081030,0.172239,-2.320663,-9.836330
18.114694,0.312754,-2.275171,-10.001237
18.147727,-0.278785,-2.274423,-9.279509
18.180954,0.002544,-2.354183,-9.421221
18.214293,-0.227607,-2.372140,-9.821815
18.247677,-0.112232,-2.417631,-9.469705
18.280962,0.013318,-2.295822,-9.446510
18.314305,0.000150,-2.429004,-9.667533
18.347879,0.261726,-2.321112,-9.367948
18.381063,0.167899,-2.378724,-9.178799
18.414325,-0.106246,-2.936743,-9.305547
18.447739,0.126149,-2.552759,-9.266191
18.481057,0.000748,-2.522232,-9.286093
18.514360,0.003741,-2.458334,-9.565327
18.547691,0.018107,-2.204540,-9.753278
18.581047,0.009727,-2.308542,-9.868354
18.614300,-0.048035,-2.173713,-9.961881
18.647726,-0.008679,-2.015840,-10.242012
18.681395,-0.009278,-1.960173,-10.050469
18.714327,-0.050430,-1.904206,-9.962330
18.748191,0.042798,-1.950745,-9.800117
18.780949,0.106995,-1.889392,-9.883168
18.814406,-0.062102,-2.176557,-10.292442
18.847762,0.013019,-1.924259,-9.730533
18.881115,0.101907,-1.796015,-9.448755
18.914331,0.015114,-1.998781,-9.399073
18.947722,0.067339,-2.071807,-9.069111
18.981055,0.025439,-2.196609,-9.124030
19.014257,0.012869,-2.360617,-8.935180
19.047672,0.134230,-2.034396,-8.925005
19.080969,0.117919,-2.168177,-9.408950
19.114413,-0.029779,-2.250031,-9.062676
19.147601,0.188400,-2.145730,-9.111759
19.181007,0.123904,-2.320513,-9.475092
19.214762,-0.064795,-2.373038,-9.606030
19.247746,0.013318,-2.530911,-9.784254
19.281019,-0.037860,-2.382016,-9.764352
19.314361,-0.009428,-2.367351,-9.629973
19.350966,-0.075570,-2.399525,-9.633863
19.380981,0.067040,-2.275620,-9.882121
19.414293,-0.055817,-2.572811,-9.710032
19.447693,0.078263,-2.402667,-9.745048
19.480961,-0.014216,-2.337572,-9.334428
19.514280,0.164458,-2.354781,-9.623089
19.547710,0.146351,-2.375133,-9.637305
19.580920,0.057014,-2.308542,-9.462971
19.614294,0.096969,-2.133609,-9.639101
19.647800,0.232395,-2.103381,-9.244642
19.681029,0.125850,-2.264996,-9.235364
19.714448,0.156826,-2.357176,-9.609172
19.747646,0.162063,-2.444418,-9.312879
19.781008,0.200671,-2.432596,-9.380368
19.814529,0.279234,-2.467313,-9.382762
19.847703,0.139318,-2.535251,-9.543180
19.880969,-0.168498,-2.633716,-9.439477
19.914329,0.050879,-2.379024,-9.622790
19.948419,-0.033221,-2.402966,-9.653317
19.981017,0.052076,-2.292829,-9.613811
20.014389,0.034867,-2.216212,-9.510109
20.047772,0.085296,-2.361515,-10.011113
20.081090,-0.063598,-2.410449,-9.737566
20.114380,-0.090235,-2.310337,-9.341910
20.147674,-0.080957,-2.435140,-9.507864
20.181039,-0.096370,-2.462674,-9.723050
20.214310,0.079909,-2.061781,-9.687286
20.247746,0.116871,-2.185236,-9.303751
20.280966,-0.099213,-2.449056,-9.429152
20.314267,0.005986,-2.176706,-9.384408
20.347679,0.184659,-2.013595,-9.335775
20.381039,0.045192,-2.031702,-9.370192
20.414255,0.059259,-2.135554,-9.338917
20.448024,0.056116,-2.276817,-9.373485
20.487532,0.108042,-2.401620,-9.734872
20.514313,0.127795,-2.014044,-9.625483
20.547625,0.038758,-2.637756,-9.446211
20.580987,0.024691,-2.690281,-9.887059
20.614310,0.106845,-2.570716,-9.710331
20.647625,-0.066441,-2.320663,-9.364057
20.681027,-0.166104,-2.369596,-9.514149
20.714323,-0.351511,-2.402218,-9.420323
20.747736,-0.064047,-2.162640,-9.571612
20.780944,-0.096370,-2.140044,-9.458332
20.814427,-0.000299,-2.264397,-9.457584
20.847946,-0.181816,-2.073153,-9.472698
20.881085,-0.265916,-2.197357,-9.647780
20.914374,-0.005836,-2.130018,-9.645984
20.947800,-0.084548,-2.191521,-9.617851
20.981017,-0.183462,-1.975586,-9.460876
21.014293,-0.196182,-2.250181,-9.577897
21.047776,0.043546,-2.137799,-9.872693
21.081143,-0.009278,-1.987558,-9.736668
21.114251,-0.167899,-2.057291,-9.411195
21.147843,-0.130788,-2.123284,-9.300159
21.180888,-0.164009,-2.189426,-9.632516
21.214510,-0.225811,-2.275770,-9.485717
21.247684,-0.247659,-2.212471,-9.531507
21.280967,-0.161465,-2.322907,-9.784703
21.314353,-0.249754,-2.348796,-9.700604
21.347645,-0.165804,-2.289687,-9.772732
21.380915,-0.209051,-2.006263,-9.566823
21.414356,-0.210697,-2.122685,-9.408651
21.447628,-0.187054,-2.074351,-9.437232
21.481068,-0.118816,-2.223993,-9.625483
21.519569,-0.134529,-2.254371,-9.633863
21.547675,-0.264569,-2.249433,-9.310186
21.580964,-0.145603,-2.495446,-9.457285
21.614430,-0.201419,-2.488712,-9.528964
21.647704,-0.413015,-2.280259,-9.333680
21.680941,-0.308863,-2.315725,-9.352535
21.714491,-0.185108,-2.183740,-9.606479
21.747580,-0.400295,-2.337572,-9.407453
21.781018,-0.434862,-2.454743,-9.535697
21.814642,-0.312754,-2.320663,-9.636856
21.847880,-0.412566,-2.521334,-9.465365
21.881104,-0.551734,-2.246440,-9.533752
21.914360,-0.611890,-2.419427,-9.495144
21.947837,-0.451473,-2.317670,-9.601391
21.981125,-0.506092,-2.337572,-9.787696
22.014351,-0.547544,-2.501282,-9.940332
22.047700,-0.630146,-2.388601,-9.848900
22.081179,-0.508038,-2.381119,-9.700604
22.114396,-0.463743,-2.259608,-9.978192
22.147759,-0.496366,-2.210077,-9.823910
22.180933,-0.640921,-2.365256,-9.497239
22.214371,-0.454466,-2.354482,-9.763753
22.247774,-0.367373,-2.168326,-9.663193
22.281033,-0.577921,-2.408204,-9.439028
22.314412,-0.638676,-2.141091,-9.153958
22.347673,-0.463145,-2.090512,-9.286692
22.381084,-0.470777,-2.253772,-9.609621
22.414973,-0.574030,-2.243148,-9.463869
22.447618,-0.566548,-2.167578,-9.087816
22.480961,-0.630146,-2.372739,-9.387401
22.514331,-0.570888,-2.250480,-9.522529
22.547809,-0.627603,-2.111312,-9.290882
22.580937,-0.603360,-2.212770,-9.384708
22.614384,-0.564154,-2.127025,-9.577598
22.656989,-0.550985,-1.998631,-9.523876
22.681006,-0.513275,-2.056842,-9.406406
22.714274,-0.531831,-2.075997,-9.785152
22.747627,-0.538565,-2.103381,-9.531807
22.781052,-0.514472,-2.013446,-9.497539
22.814310,-0.488734,-1.944610,-9.533602
22.847664,-0.511330,-1.788383,-9.703298
22.881021,-0.434563,-1.839860,-9.809544
22.914317,-0.503997,-1.976035,-9.539289
22.947815,-0.514921,-1.993693,-9.564279
22.980965,-0.396554,-1.746034,-9.563980
23.014410,-0.486789,-2.115353,-9.585229
23.047885,-0.492475,-2.020778,-9.680552
23.081091,-0.471226,-2.168626,-9.558892
23.114336,-0.492924,-2.295672,-9.385606
23.147920,-0.525696,-2.133011,-9.483771
23.180965,-0.451622,-2.242100,-9.525073
23.214542,-0.466886,-2.418230,-9.640148
23.247677,-0.447283,-2.259758,-9.645086
23.281131,-0.482449,-2.465068,-9.535548
23.315213,-0.477361,-2.361815,-9.579842
23.347707,-0.515819,-2.411795,-9.578944
23.381809,-0.362735,-2.178053,-9.711977
23.414365,-0.455962,-2.342062,-9.699257
23.447790,-0.543054,-2.323805,-9.375430
23.481125,-0.568194,-2.284449,-9.761658
23.514397,-0.622365,-2.540039,-9.612614
23.547674,-0.521206,-2.420026,-9.757319
23.580953,-0.556522,-2.247188,-9.501429
23.614727,-0.557719,-2.315725,-9.490356
23.647712,-0.597674,-2.199153,-9.401468
23.681017,-0.609945,-2.250780,-9.432743
23.714299,-0.518214,-2.058638,-9.466413
23.747663,-0.590790,-2.133759,-9.391142
23.781118,-0.486040,-1.783145,-9.548268
23.814303,-0.531232,-1.901214,-9.483322
23.847640,-0.615781,-2.164136,-9.360316
23.880968,-0.532729,-2.030206,-9.496940
23.914410,-0.432618,-2.059237,-9.534500
23.947869,-0.524798,-1.955534,-9.342060
23.980961,-0.521356,-1.785390,-9.470154
24.014424,-0.631493,-1.833276,-9.507415
24.047843,-0.470028,-1.826392,-9.548417
24.081258,-0.459254,-1.962567,-9.649426
24.114261,-0.573282,-2.084377,-9.516543
24.147777,-0.495169,-1.914233,-9.574455
24.181018,-0.370965,-2.021826,-9.681450
24.214662,-0.456411,-2.200051,-9.716616
24.247705,-0.549639,-2.157851,-9.804606
24.281091,-0.623413,-2.391743,-9.620545
24.314351,-0.533028,-2.364658,-9.773779
24.347700,-0.528689,-2.192868,-9.434090
24.380986,-0.594232,-2.307943,-9.381865
24.414297,-0.576874,-2.236863,-9.577149
24.447743,-0.552033,-2.390546,-9.477037
24.481489,-0.584356,-2.382914,-9.457883
24.514435,-0.572684,-2.439928,-9.569966
24.547952,-0.587648,-2.460280,-9.521332
24.581009,-0.546795,-2.408952,-9.580590
24.614343,-0.593634,-2.538693,-9.364207
24.647819,-0.581512,-2.513852,-9.484220
24.681080,-0.594531,-2.418829,-9.365853
24.714328,-0.608299,-2.348945,-9.281155
24.747629,-0.516567,-2.393389,-9.552607
24.781029,-0.561610,-2.480033,-9.659602
24.817472,-0.592436,-2.176706,-9.673519
24.847595,-0.604408,-2.277865,-9.368696
24.880991,-0.527491,-2.380370,-9.721255
24.914272,-0.498610,-2.108020,-9.786798
24.947704,-0.607550,-1.999978,-9.552906
24.981088,-0.601565,-2.083628,-9.662445
25.014596,-0.587947,-2.345952,-9.714072
25.047737,-0.519710,-2.144383,-9.765250
25.081138,-0.582560,-2.011500,-9.481527
25.114425,-0.541558,-2.057291,-9.466263
25.147638,-0.508187,-1.982619,-9.503824
25.181008,-0.545897,-2.222347,-9.406556
25.214625,-0.571337,-1.835371,-9.323803
25.248783,-0.648403,-1.780003,-9.300459
25.281005,-0.634935,-1.892385,-9.388598
25.314291,-0.593484,-1.856770,-9.582835
25.347832,-0.709906,-1.861409,-9.464916
25.381035,-0.846081,-1.897024,-9.188376
25.414667,-0.852666,-1.935183,-9.217856
25.447677,-0.773055,-2.048013,-9.421969
25.481153,-0.892471,-1.853328,-9.636258
25.514289,-0.986147,-2.145431,-9.055493
25.547721,-0.909829,-2.149920,-9.455788
25.581170,-0.996472,-2.054298,-9.534650
25.614517,-1.128457,-2.440527,-9.436335
25.647688,-1.097032,-2.496493,-9.681300
25.681068,-0.995126,-2.598849,-9.680552
25.714290,-1.070995,-2.678758,-9.798919
25.747740,-1.037325,-2.529265,-9.700604
25.780999,-1.065458,-2.774829,-9.352684
25.814339,-1.063063,-2.662597,-9.510109
25.848102,-0.996472,-2.583286,-9.727989
25.881068,-1.043909,-2.650775,-9.543479
25.914374,-1.015028,-2.413591,-9.568769
25.947682,-1.119030,-2.619799,-9.471351
25.993506,-1.063213,-2.737418,-9.526719
26.014271,-0.978066,-2.493650,-9.591664
26.047677,-1.120227,-2.683098,-9.214115
26.080955,-0.999914,-2.564431,-9.393686
26.114416,-0.844884,-2.385608,-9.655412
26.148109,-0.925841,-2.450104,-9.209027
26.181070,-0.947389,-2.673371,-9.428104
26.214523,-0.829022,-2.531061,-9.433192
26.247613,-0.740134,-2.402218,-9.646882
26.281010,-0.791910,-2.374983,-9.420921
26.314393,-0.899953,-2.287292,-9.443966
26.347949,-0.840395,-2.301060,-9.540785
26.380997,-0.860297,-2.306447,-9.609771
26.414301,-0.958164,-2.511757,-9.482724
26.448292,-0.861943,-2.411795,-9.596303
26.481017,-0.839946,-2.382615,-9.660051
26.514310,-0.794604,-2.244195,-9.790539
26.547766,-0.812262,-2.300760,-9.688483
26.581055,-0.778143,-2.328893,-9.609172
26.614330,-0.767668,-2.120889,-9.459529
26.647687,-0.802685,-2.184488,-9.499035
26.681174,-0.857604,-2.077044,-9.346250
26.714345,-0.829172,-2.077643,-9.282053
26.747879,-0.778742,-2.102334,-9.550961
26.781091,-0.772158,-2.105626,-9.535997
26.814521,-0.874364,-2.336226,-9.228780
26.847636,-0.833212,-2.206186,-9.279808
26.880990,-0.798794,-2.288939,-9.401019
26.914693,-0.848326,-2.284449,-9.377974
26.947638,-0.788469,-2.179101,-9.150816
26.981030,-0.787571,-2.310786,-9.352385
27.014339,-0.705267,-2.148125,-9.492151
27.053152,-0.835157,-2.191521,-9.352235
27.080979,-0.753003,-2.092308,-9.384558
27.114284,-0.784578,-2.271879,-9.707488
27.147834,-0.805528,-2.313181,-9.795777
27.181016,-0.801188,-2.140642,-9.477636
27.214395,-0.727714,-2.380819,-9.722302
27.247739,-0.864637,-2.353584,-9.632516
27.280957,-0.778742,-2.377826,-9.669927
27.314682,-0.795801,-2.520735,-9.591814
27.347755,-0.735046,-2.277416,-9.544078
27.381418,-0.796250,-2.338770,-9.658854
27.414542,-0.893518,-2.670528,-9.543928
27.447735,-0.830518,-2.431399,-9.529861
27.481506,-0.791013,-2.399525,-9.589120
27.514593,-0.829920,-2.633566,-9.420921
27.547763,-0.960708,-2.673222,-9.590467
27.581008,-0.907734,-2.546175,-9.548118
27.616224,-0.881696,-2.264996,-9.447259
27.647856,-0.910877,-2.691777,-9.492301
27.681199,-0.946641,-2.609923,-9.348943
27.714476,-0.874064,-2.474945,-9.391142
27.747687,-0.861943,-2.582239,-9.333530
27.781125,-0.889627,-2.637756,-9.456686
27.814668,-0.888580,-2.621445,-9.351637
27.847774,-0.851618,-2.567723,-9.332632
27.881360,-0.917012,-2.644789,-9.242697
27.914254,-0.871820,-2.662298,-9.226535
27.947669,-0.735196,-2.334430,-9.697162
27.980936,-0.735196,-2.399974,-9.662595
28.014257,-0.796100,-2.537795,-9.672322
28.047639,-0.747018,-2.353435,-9.788444
28.081123,-0.758091,-2.396981,-9.756570
28.114396,-0.750459,-2.260207,-9.509660
28.147751,-0.705866,-2.313929,-9.611267
28.181011,-0.645111,-2.378874,-9.643141
28.214344,-0.633588,-2.207383,-9.595555
28.248375,-0.591389,-2.108619,-9.557695
28.281009,-0.579717,-2.077643,-9.580890
28.314652,-0.496815,-2.141391,-9.720656
28.347747,-0.535871,-2.127773,-9.572959
28.381007,-0.616978,-2.184188,-9.456536
28.414510,-0.565800,-2.097396,-9.538690
28.447837,-0.537069,-2.138248,-9.629374
28.481349,-0.549339,-2.056842,-9.624735
28.514338,-0.578819,-2.258711,-9.209925
28.548167,-0.568494,-2.190623,-9.307342
28.581030,-0.608598,-2.225191,-9.478534
28.614789,-0.516119,-2.191820,-9.570265
28.647668,-0.545000,-2.200200,-9.468209
28.680978,-0.650947,-2.397430,-9.387850
28.714346,-0.616230,-2.484073,-9.491104
28.747591,-0.576724,-2.484671,-9.457285
28.781010,-0.670101,-2.448458,-9.387102
28.814889,-0.524349,-2.363311,-9.467760
28.848471,-0.560712,-2.611569,-9.399522
28.880969,-0.606952,-2.541237,-9.483023
28.914470,-0.621916,-2.488263,-9.395183
28.947834,-0.543653,-2.464021,-9.575652
28.981137,-0.563705,-2.519239,-9.565626
29.014321,-0.538864,-2.337572,-9.587773
29.047678,-0.586900,-2.417631,-9.576700
29.081074,-0.596177,-2.456239,-9.672322
29.114919,-0.569391,-2.474196,-9.463869
29.147723,-0.518214,-2.589571,-9.597201
29.181156,-0.606952,-2.504275,-9.491702
29.225204,-0.577771,-2.512206,-9.424513
29.247677,-0.488135,-2.441574,-9.550811
29.280976,-0.497264,-2.408952,-9.506367
29.314585,-0.586151,-2.343109,-9.566674
29.347686,-0.487686,-2.460130,-9.506667
29.381087,-0.507290,-2.294326,-9.472399
29.414301,-0.508636,-2.303454,-9.657806
29.448228,-0.536470,-2.281456,-9.635809
29.481453,-0.530035,-2.218906,-9.642543
29.514374,-0.543802,-2.293727,-9.413738
29.547648,-0.531681,-2.286544,-9.551709
29.580960,-0.537069,-2.280259,-9.662744
29.614354,-0.556073,-2.377677,-9.574006
29.647622,-0.597973,-2.491256,-9.371240
29.681009,-0.618474,-2.440826,-9.501878
29.714369,-0.575826,-2.347748,-9.552458
29.749453,-0.574629,-2.285497,-9.546472
29.780921,-0.566548,-2.333083,-9.446061
29.814344,-0.625807,-2.296421,-9.408950
29.848157,-0.575227,-2.307794,-9.434838
29.881009,-0.536470,-2.402218,-9.539588
29.914402,-0.524349,-2.345055,-9.526420
29.947667,-0.577173,-2.307943,-9.488710
29.981059,-0.543354,-2.237461,-9.584481
30.014916,-0.601265,-2.425862,-9.507864
30.047724,-0.589294,-2.496493,-9.332183
30.081092,-0.652144,-2.499935,-9.162039
30.114318,-0.555026,-2.341613,-9.666934
30.147702,-0.547095,-2.204241,-9.412392
30.181079,-0.618774,-2.417631,-9.416133
30.214329,-0.524199,-2.329342,-9.575951
30.247639,-0.612339,-2.363910,-9.661847
30.280952,-0.561909,-2.426011,-9.588821
30.315298,-0.603809,-2.402368,-9.435287
30.347915,-0.523152,-2.254521,-9.663343
30.381825,-0.650797,-2.479584,-9.499185
30.414254,-0.610843,-2.292680,-9.597799
30.447703,-0.669503,-2.268587,-9.450700
30.481372,-0.689555,-2.399225,-9.418377
30.514360,-0.707213,-2.417183,-9.712276
30.547687,-0.738189,-2.292231,-9.562783
30.581711,-0.816901,-2.362862,-9.459380
30.614368,-0.768117,-2.423617,-9.604833
30.648255,-0.800141,-2.311684,-9.702100
30.681118,-0.820792,-2.319765,-9.715419
30.714229,-0.822587,-2.261554,-9.647331
30.747700,-0.791162,-2.291482,-9.610519
30.781005,-0.722626,-2.233122,-9.688782
30.816843,-0.805079,-2.236264,-9.611267
30.847689,-0.859399,-2.340266,-9.429301
30.881040,-0.755996,-2.230428,-9.525372
30.914532,-0.805378,-2.282654,-9.601391
30.947978,-0.795053,-2.207982,-9.515496
30.981077,-0.805079,-2.250780,-9.462971
31.014370,-0.735495,-2.270682,-9.542132
31.047994,-0.733250,-2.259160,-9.454441
31.081010,-0.684916,-2.202744,-9.423914
31.114623,-0.671448,-2.215314,-9.513850
31.147607,-0.662170,-2.285497,-9.436185
31.180972,-0.664265,-2.277865,-9.458033
31.214969,-0.634187,-2.205737,-9.651820
31.248409,-0.685215,-2.277715,-9.425560
31.281117,-0.685514,-2.357924,-9.479731
31.314374,-0.689555,-2.316922,-9.448905
31.347973,-0.743875,-2.285048,-9.504871
31.381029,-0.687310,-2.217260,-9.537643
31.414782,-0.649450,-2.169075,-9.622041
31.451998,-0.625059,-2.151417,-9.703298
31.481005,-0.674291,-2.135704,-9.614110
31.514346,-0.705267,-2.349544,-9.648678
31.547665,-0.672495,-2.141391,-9.501579
31.581359,-0.717388,-2.277715,-9.482425
31.614346,-0.642866,-2.272179,-9.653167
31.647627,-0.647355,-2.141091,-9.569218
31.681016,-0.641519,-2.258711,-9.480479
31.714339,-0.685215,-2.325002,-9.569218
31.747607,-0.619223,-2.142737,-9.590317
31.781831,-0.674740,-2.240155,-9.628177
31.814743,-0.665013,-2.236563,-9.599595
31.848243,-0.609795,-2.169224,-9.578645
31.881059,-0.613536,-2.169224,-9.689231
31.914353,-0.671149,-2.216960,-9.523427
31.947797,-0.641519,-2.225041,-9.649725
31.980969,-0.664714,-2.274423,-9.621443
32.014294,-0.642716,-2.316622,-9.634761
32.047795,-0.667707,-2.372290,-9.430199
32.081067,-0.648104,-2.314228,-9.554702
32.114370,-0.646308,-2.330240,-9.621593
32.147770,-0.692398,-2.388601,-9.538391
32.180988,-0.633888,-2.378126,-9.534351
32.215165,-0.654089,-2.301957,-9.582835
32.247807,-0.651994,-2.305699,-9.471351
32.281012,-0.702873,-2.406259,-9.482724
32.314958,-0.695540,-2.372888,-9.489159
32.348687,-0.664564,-2.448009,-9.525222
32.381243,-0.665761,-2.279810,-9.445164
32.414488,-0.729958,-2.301359,-9.374233
32.447930,-0.628800,-2.175509,-9.510408
32.481134,-0.619223,-2.276069,-9.539439
32.514339,-0.598123,-2.194963,-9.505619
32.555119,-0.681773,-2.315276,-9.400271
32.581131,-0.616080,-2.206635,-9.667982
32.614266,-0.593334,-2.288639,-9.671573
32.647789,-0.630146,-2.211274,-9.605132
32.681720,-0.628800,-2.199003,-9.522978
32.714279,-0.580615,-2.193766,-9.778418
32.747836,-0.575078,-2.182393,-9.677709
32.780945,-0.730258,-2.157552,-9.565177
32.814491,-0.702873,-2.219355,-9.581339
32.847849,-0.656184,-2.182991,-9.736668
32.880960,-0.662918,-2.253623,-9.773929
32.914384,-0.707063,-2.137649,-9.510557
32.948281,-0.735944,-2.213518,-9.477337
32.981245,-0.605306,-2.167578,-9.626680
33.014630,-0.682821,-2.184338,-9.592711
33.048213,-0.768267,-2.181196,-9.596303
33.081084,-0.822288,-2.157552,-9.432893
33.114692,-0.772457,-2.211124,-9.466114
33.147704,-0.832763,-2.158749,-9.583434
33.181277,-0.890974,-2.270233,-9.536595
33.214514,-0.931677,-2.321112,-9.437831
33.247963,-0.960708,-2.380221,-9.486016
33.281279,-0.974325,-2.303005,-9.513251
33.315327,-1.050942,-2.382615,-9.542731
33.347707,-1.064261,-2.281756,-9.403263
33.380921,-1.042862,-2.135106,-9.709433
33.414991,-1.059023,-2.234319,-9.757169
33.448261,-1.191756,-2.343708,-9.660649
33.480987,-1.212108,-2.351789,-9.540037
33.514574,-1.223930,-2.355679,-9.549465
33.547704,-1.230963,-2.395185,-9.753278
33.580958,-1.209115,-2.160395,-9.582835
33.614377,-1.310423,-2.232074,-9.503824
33.648847,-1.242635,-2.167428,-9.618300
33.681063,-1.122472,-2.071507,-9.741756
33.714301,-1.225576,-2.173564,-9.672621
33.747605,-1.376416,-2.196609,-9.550961
33.780995,-1.395570,-2.287891,-9.627728
33.814284,-1.235602,-2.089764,-9.759114
33.848095,-1.215999,-2.002073,-9.583883
33.881023,-1.282739,-2.145581,-9.358071
33.914537,-1.350079,-2.103232,-9.461175
33.947665,-1.419214,-2.110863,-9.631020
33.981003,-1.445252,-1.932190,-9.579842
34.014729,-1.420411,-2.005515,-9.469406
34.047700,-1.291568,-1.948800,-9.681001
34.081198,-1.400209,-2.025268,-9.575353
34.114669,-1.485356,-2.165483,-9.442919
34.148274,-1.466950,-2.272627,-9.437981
34.181358,-1.355615,-2.298516,-9.530011
34.214309,-1.318803,-2.166980,-9.731879
34.247944,-1.380755,-2.192269,-9.540037
34.281644,-1.308029,-2.310188,-9.561586
34.314768,-1.152251,-2.201996,-9.669628
34.347640,-1.193103,-2.295672,-9.529412
34.381188,-1.264633,-2.374385,-9.497239
34.415696,-1.159733,-2.247487,-9.621443
34.447821,-1.169759,-2.211723,-9.616505
34.481071,-1.133845,-2.126127,-9.656609
34.514803,-1.157488,-2.328594,-9.483921
34.548040,-1.158087,-2.342660,-9.519686
34.581077,-1.136089,-2.263649,-9.621293
34.614532,-1.180234,-2.281456,-9.461774
34.647843,-1.086557,-2.341912,-9.610818
34.682098,-0.950233,-2.212321,-9.741157
34.714534,-1.022061,-2.196160,-9.689680
34.752684,-1.017572,-2.353435,-9.464767
34.780932,-0.981807,-2.292530,-9.757019
34.814340,-0.843238,-2.288041,-9.630122
34.847754,-0.954273,-2.237012,-9.616654
34.881039,-0.936017,-2.357325,-9.608125
34.914540,-0.790264,-2.256316,-9.668132
34.947644,-0.690453,-2.165034,-9.659901
34.981116,-0.765274,-2.272478,-9.617851
35.014463,-0.721878,-2.207533,-9.631170
35.047796,-0.694493,-2.271730,-9.600044
35.081459,-0.696139,-2.187032,-9.584182
35.114384,-0.630595,-2.228333,-9.619198
35.147839,-0.586002,-2.202595,-9.730084
35.183002,-0.523900,-2.249882,-9.602588
35.214752,-0.568344,-2.360169,-9.523726
35.247747,-0.452071,-2.214267,-9.654813
35.282247,-0.343431,-2.364209,-9.537344
35.314326,-0.001048,-2.410748,-9.555750
35.347629,0.286417,-2.461327,-9.675015
35.381066,0.516717,-2.380370,-9.688034
35.414840,0.317692,-2.383064,-9.693122
35.447977,0.090684,-2.291333,-9.404910
35.480997,-0.045940,-2.410598,-9.448755
35.514436,-0.150242,-2.403565,-9.385456
35.548042,-0.162812,-2.286395,-9.181193
35.580954,0.029031,-2.283551,-9.324551
35.614996,0.098914,-2.260207,-9.496192
35.647618,0.160567,-2.281307,-9.434240
35.680933,0.170443,-2.274124,-9.537493
35.714535,0.041601,-2.329492,-9.495593
35.747893,-0.051477,-2.311684,-9.511006
35.780992,-0.042798,-2.247487,-9.639999
35.815595,0.013767,-2.293727,-9.615906
35.853486,-0.026337,-2.350891,-9.590317
35.880952,0.051178,-2.333233,-9.626830
35.914297,0.134230,-2.282504,-9.710929
35.947655,0.082753,-2.268288,-9.729485
35.981029,0.022596,-2.351340,-9.671424
36.015018,-0.017957,-2.268138,-9.702549
36.047705,-0.005088,-2.218906,-9.677709
36.081266,0.014515,-2.208580,-9.559491
36.114334,0.049083,-2.243297,-9.609771
36.147628,0.124653,-2.217858,-9.566075
36.181115,0.065693,-2.367651,-9.476738
36.214981,0.082902,-2.240155,-9.523876
36.249914,0.020052,-2.287143,-9.417779
36.282546,0.042648,-2.239257,-9.589719
36.314994,-0.002544,-2.293278,-9.449952
36.348103,-0.006584,-2.394138,-9.418976
36.381065,0.044743,-2.330988,-9.536595
36.415642,0.008679,-2.422570,-9.430648
36.447675,-0.009727,-2.438731,-9.519835
36.482592,-0.029480,-2.471054,-9.391442
36.514256,-0.051477,-2.486318,-9.525821
36.548373,-0.063598,-2.433194,-9.510408
36.581475,-0.089486,-2.522980,-9.412990
36.614678,0.017508,-2.448159,-9.555750
36.647607,0.060755,-2.300012,-9.635958
36.680944,-0.008230,-2.456688,-9.530610
36.717751,-0.003741,-2.495595,-9.376777
36.747572,-0.013468,-2.429154,-9.499634
36.782995,0.034867,-2.275920,-9.639101
36.816513,0.074373,-2.260207,-9.600343
36.848179,0.052525,-2.326050,-9.536595
36.881532,0.061354,-2.209777,-9.675913
36.927236,-0.026786,-2.429603,-9.424962
36.947673,0.044893,-2.273076,-9.514747
36.980942,0.064795,-2.234169,-9.676212
37.014744,-0.015413,-2.428406,-9.432444
37.047602,0.043995,-2.239556,-9.678307
37.081251,0.055518,-2.230129,-9.581189
37.114253,0.077365,-2.274274,-9.643590
37.147781,0.006135,-2.287442,-9.583284
37.184391,0.075121,-2.213818,-9.678457
37.214750,-0.048335,-2.417931,-9.365404
37.247980,0.007183,-2.254670,-9.565028
37.281753,0.051926,-2.251528,-9.560239
37.314595,0.024242,-2.238658,-9.522679
37.348416,0.030976,-2.322459,-9.430648
37.381410,0.041152,-2.266193,-9.540636
37.416566,0.036513,-2.285796,-9.481676
37.447763,0.003891,-2.392342,-9.424962
37.484132,-0.007781,-2.335178,-9.522379
37.514896,0.047586,-2.336226,-9.441871
37.549237,0.013318,-2.319166,-9.535997
37.581445,-0.010325,-2.414339,-9.528066
37.615127,-0.011971,-2.396981,-9.558294
37.648525,-0.015413,-2.385458,-9.446810
37.681491,-0.034268,-2.435888,-9.509061
37.715421,0.008829,-2.358223,-9.558593
37.748838,0.018855,-2.381867,-9.576101
37.781469,0.061354,-2.110414,-9.720058
37.815221,0.034717,-2.227136,-9.634312
37.848451,-0.043995,-2.514899,-9.441422
37.881216,0.040404,-2.123733,-9.506816
37.915621,-0.016311,-2.357774,-9.570864
37.948107,0.108042,-2.163837,-9.580441
37.981296,0.083650,-2.233271,-9.635809
38.015885,0.047886,-2.170870,-9.525821
38.055934,-0.010774,-2.340416,-9.510857
38.081170,-0.029031,-2.515797,-9.511904
38.114678,-0.035615,-2.402069,-9.597949
38.148264,0.040703,-2.202295,-9.774228
38.181141,0.087242,-2.221749,-9.765250
38.215944,0.134230,-2.103232,-9.823611
38.249478,0.042349,-2.268886,-9.604234
38.282647,0.085446,-2.099790,-9.787098
38.316229,0.075270,-2.125678,-9.674267
38.349283,-0.000898,-2.359869,-9.486315
38.385080,0.035765,-2.306447,-9.639699
38.415320,0.017957,-2.392192,-9.569966
38.448837,-0.032921,-2.413441,-9.386503
38.482244,-0.043396,-2.461327,-9.470902
38.515566,-0.089486,-2.520137,-9.341910
38.548837,0.006584,-2.427807,-9.472997
38.582646,0.097717,-2.252575,-9.682348
38.615102,0.018556,-2.381867,-9.392788
38.648698,-0.003143,-2.460429,-9.468059
38.684669,-0.054171,-2.456838,-9.384408
38.715603,0.002394,-2.396981,-9.638353
38.749611,0.039506,-2.300760,-9.446660
38.781833,-0.039655,-2.439479,-9.428553
38.815669,0.024841,-2.391444,-9.527916
38.850038,-0.065544,-2.501731,-9.682946
38.881861,0.006734,-2.461926,-9.747592
38.915670,0.038608,-2.402368,-9.705991
38.948779,0.039955,-2.260955,-9.754475
38.981756,0.013767,-2.307494,-9.571462
39.016912,0.012720,-2.320364,-9.493498
39.049421,0.047736,-2.288041,-9.611566
39.083041,0.000599,-2.289836,-9.659153
39.115857,0.077814,-2.301658,-9.437232
39.154767,0.019304,-2.279062,-9.547968
39.181721,0.073175,-2.179998,-9.511455
39.215233,0.064945,-2.155457,-9.479881
39.248421,0.081406,-2.399674,-9.462522
39.281312,-0.005686,-2.633267,-9.635509
39.315391,0.170144,-2.033049,-9.862518
39.348730,0.101458,-2.124631,-9.587624
39.382325,-0.024093,-2.329342,-9.310934
39.416118,0.108341,-2.149322,-9.765100
39.449350,0.001646,-2.453845,-9.493947
39.482764,0.041002,-2.190473,-9.599894
39.516148,-0.021998,-2.440676,-9.388449
39.548859,-0.075719,-2.526871,-9.406556
39.582802,-0.001347,-2.248984,-9.461175
39.616082,0.010176,-2.410449,-9.418976
39.648837,-0.047138,-2.466265,-9.534201
39.682395,-0.031724,-2.396233,-9.390394
39.716218,-0.026636,-2.391444,-9.438579
39.748852,0.040404,-2.379472,-9.524624
39.781973,-0.010026,-2.411197,-9.447857
39.816107,-0.003891,-2.426311,-9.532106
39.848833,0.039057,-2.340116,-9.626082
39.883318,0.020950,-2.396382,-9.514897
39.916210,0.068686,-2.343109,-9.609621
39.948988,-0.012570,-2.429603,-9.535398
39.984262,0.055368,-2.393838,-9.597949
40.015551,0.027235,-2.333831,-9.628925
40.048628,-0.002544,-2.402218,-9.542282
40.082545,0.034867,-2.321561,-9.610070
40.115608,0.051328,-2.301957,-9.664540
40.149149,0.049382,-2.349095,-9.638203
40.182531,0.015862,-2.326050,-9.661098
40.218156,0.013767,-2.417482,-9.630721
40.247755,0.037860,-2.246590,-9.536745
40.281034,0.057762,-2.239706,-9.638502
40.314364,0.000150,-2.438282,-9.524474
40.347703,0.040254,-2.288041,-9.557994
40.381109,0.059109,-2.242549,-9.583883
40.414508,0.013318,-2.331587,-9.437083
40.447707,0.019903,-2.251977,-9.585379
40.482197,0.010475,-2.334879,-9.508911
40.514408,-0.004040,-2.384111,-9.489607
40.547944,0.034568,-2.302107,-9.548118
40.581648,-0.008979,-2.421223,-9.474194
40.614365,0.009727,-2.332485,-9.554702
40.647749,-0.014815,-2.401021,-9.487213
40.681070,-0.034568,-2.400722,-9.536745
40.714317,-0.032473,-2.388301,-9.430050
40.747928,0.002843,-2.381867,-9.516992
40.781106,-0.003442,-2.344905,-9.561286
40.814255,-0.014515,-2.375881,-9.430499
40.848027,0.012271,-2.322608,-9.541833
40.880979,-0.009428,-2.366753,-9.398625
40.914407,-0.010176,-2.336974,-9.600194
40.947629,0.079760,-2.184338,-9.666336
40.981063,0.022446,-2.272927,-9.518189
41.014345,0.056864,-2.187930,-9.598996
41.047685,0.066142,-2.174312,-9.622191
41.081458,0.061204,-2.209777,-9.608873
41.114336,0.096669,-2.233720,-9.618300
41.147759,0.071380,-2.246889,-9.625334
41.181068,0.083201,-2.197806,-9.710630
41.214371,0.072427,-2.264996,-9.673968
41.247716,0.050280,-2.204989,-9.722602
41.281110,0.067938,-2.287891,-9.694768
41.318442,0.024392,-2.347150,-9.621293
41.347894,-0.045192,-2.399974,-9.553954
41.381055,-0.018855,-2.384411,-9.453244
41.414285,0.041900,-2.229081,-9.727839
41.447705,0.069883,-2.288939,-9.670526
41.481010,-0.020202,-2.400572,-9.566225
41.514351,0.025589,-2.270532,-9.570714
41.547686,-0.019304,-2.369147,-9.524474
41.581169,-0.024093,-2.393539,-9.430798
41.614549,0.010026,-2.344606,-9.409848
41.647676,0.022895,-2.387853,-9.500082
41.681035,-0.000898,-2.397879,-9.430798
41.714407,-0.008979,-2.392043,-9.396380
41.747857,-0.010176,-2.415836,-9.439776
41.781014,0.027834,-2.390696,-9.429002
41.814559,0.039506,-2.347150,-9.530460
41.847838,0.007183,-2.424665,-9.548417
41.881116,-0.009727,-2.364957,-9.618001
41.914361,-0.038907,-2.478985,-9.589120
41.947773,-0.004190,-2.373636,-9.609920
41.981149,-0.028731,-2.506070,-9.616205
42.014400,0.004938,-2.367351,-9.609920
42.047975,0.014366,-2.229680,-9.682048
42.081046,-0.008230,-2.373636,-9.675464
42.114364,0.026188,-2.225340,-9.607227
42.147685,-0.029929,-2.375582,-9.526120
42.181008,0.044594,-2.232673,-9.552009
42.214338,0.092330,-2.116999,-9.661697
42.247680,0.127945,-2.120141,-9.574006
42.281086,0.104151,-2.095600,-9.569816
42.314395,0.105648,-2.107122,-9.565327
42.347713,0.097418,-2.124930,-9.642543
42.381051,0.098764,-2.075099,-9.616205
42.415780,0.026936,-2.225041,-9.511755
42.455919,0.070781,-2.128222,-9.657806
42.480974,0.040853,-2.254221,-9.630571
42.514303,0.086045,-2.112509,-9.736369
42.547678,0.062102,-2.205288,-9.607975
42.580967,-0.020052,-2.364209,-9.527317
42.614467,0.018406,-2.184338,-9.636706
42.647740,-0.005986,-2.336375,-9.449802
42.681294,-0.058361,-2.409850,-9.411045
42.714768,-0.018855,-2.300461,-9.488560
42.747673,-0.032173,-2.359570,-9.393387
42.780937,-0.016910,-2.399375,-9.520434
42.814610,0.002245,-2.350591,-9.388898
42.847748,0.034568,-2.276518,-9.610818
42.880980,0.014216,-2.391893,-9.557545
42.914287,0.003292,-2.410898,-9.444116
42.947703,0.007183,-2.444418,-9.505619
42.981011,-0.001048,-2.404014,-9.383810
43.014350,0.006884,-2.450254,-9.475092
43.047704,0.049981,-2.374085,-9.546621
43.081111,-0.002694,-2.460878,-9.513999
43.114537,0.003442,-2.372589,-9.584481
43.147701,0.039206,-2.228932,-9.647032
43.181113,-0.007781,-2.426011,-9.590467
43.214645,0.028881,-2.283402,-9.659602
43.248051,-0.004789,-2.436786,-9.632816
43.281108,0.010026,-2.289537,-9.699108
43.314395,0.070482,-2.175509,-9.723200
43.347640,0.053572,-2.297767,-9.672920
43.380980,0.069584,-2.193766,-9.673369
43.414699,0.063449,-2.167877,-9.635060
43.447795,0.026188,-2.261853,-9.525821
43.481174,0.074821,-2.188678,-9.637155
43.514412,0.096669,-2.207383,-9.671873
43.556119,0.063598,-2.298366,-9.582685
43.580961,0.033819,-2.252575,-9.531657
43.614299,0.091581,-2.199602,-9.625633
43.647594,0.031275,-2.255718,-9.546771
43.681011,-0.010625,-2.318717,-9.403563
43.714339,0.029929,-2.247338,-9.548118
43.747715,-0.033071,-2.320364,-9.469406
43.781010,-0.029929,-2.359869,-9.405358
43.815007,-0.009428,-2.339069,-9.501280
43.847928,-0.017658,-2.385159,-9.419126
43.881094,-0.010026,-2.366603,-9.506218
43.914411,0.007333,-2.340116,-9.626381
43.947697,0.060156,-2.258711,-9.632965
43.981038,-0.052525,-2.330689,-9.432145
44.014518,0.040553,-2.353135,-9.462971
44.047685,0.029629,-2.343109,-9.556199
44.081032,-0.000898,-2.349694,-9.480030
44.114414,0.029629,-2.317670,-9.560389
44.147915,0.048784,-2.293577,-9.614410
44.181060,0.079011,-2.317071,-9.531059
44.214422,0.051776,-2.296720,-9.632816
44.247679,0.035615,-2.301359,-9.565028
44.281019,0.045641,-2.282654,-9.597350
44.314418,0.038758,-2.264098,-9.657656
44.347682,0.037860,-2.318867,-9.640448
44.381213,0.035316,-2.271879,-9.689231
44.414299,0.052974,-2.248834,-9.658704
44.447649,0.056415,-2.283402,-9.654813
44.481020,0.026188,-2.285946,-9.702250
44.514492,0.055518,-2.295523,-9.589719
44.547610,-0.011373,-2.339817,-9.506218
44.581023,-0.016311,-2.380520,-9.438729
44.623514,0.004789,-2.367800,-9.567272
44.647657,0.062401,-2.250630,-9.601989
44.681076,-0.009876,-2.400871,-9.405957
44.714254,0.065693,-2.237910,-9.610968
44.747775,0.049981,-2.331736,-9.487064
44.781044,-0.008829,-2.424365,-9.408052
44.814553,-0.027684,-2.424066,-9.433940
44.847752,0.016610,-2.386356,-9.474344
44.881330,0.034867,-2.295523,-9.579393
44.914549,-0.011971,-2.454144,-9.449952
44.947641,-0.033819,-2.456539,-9.476589
44.981131,-0.010325,-2.406259,-9.547220
45.014285,-0.037111,-2.483624,-9.451748
45.047727,-0.006884,-2.407007,-9.553355
45.081030,-0.045940,-2.479584,-9.444266
45.114346,-0.024093,-2.425862,-9.549764
45.148236,-0.027684,-2.499785,-9.445912
45.180971,-0.018406,-2.413142,-9.537493
45.214431,0.018855,-2.301359,-9.603785
45.247827,-0.007033,-2.388900,-9.500232
45.281048,0.008380,-2.300311,-9.587025
45.314389,0.056864,-2.219355,-9.618151
45.347722,0.015563,-2.322309,-9.555600
45.381016,0.065693,-2.204241,-9.546921
45.414588,0.074522,-2.176706,-9.607227
45.447613,0.077665,-2.192269,-9.596901
45.481048,0.092180,-2.162041,-9.584331
45.514490,0.072278,-2.169972,-9.625783
45.547717,0.060755,-2.213518,-9.620994
45.581076,0.016910,-2.355829,-9.438729
45.614662,0.033819,-2.253024,-9.583434
45.647729,0.076019,-2.213967,-9.621742
45.680939,0.033520,-2.292081,-9.642692
45.714376,0.077066,-2.237461,-9.661248
45.759354,0.049681,-2.264846,-9.642692
45.781022,-0.015114,-2.360917,-9.535847
45.815292,-0.008829,-2.444866,-9.503973
45.847640,-0.000898,-2.327247,-9.530011
45.881025,0.007333,-2.395335,-9.608424
45.914352,0.007183,-2.285197,-9.549016
45.947994,0.015413,-2.426760,-9.403862
45.980959,-0.012869,-2.438282,-9.485866
46.014758,-0.012420,-2.394586,-9.408950
46.047825,-0.027684,-2.450553,-9.438280
46.080944,-0.012271,-2.369446,-9.384408
46.114376,0.001197,-2.430351,-9.412841
46.147722,0.002993,-2.434242,-9.500980
46.181015,-0.040853,-2.469857,-9.434389
46.214484,-0.011822,-2.438133,-9.502327
46.247712,0.004938,-2.309589,-9.632217
46.281156,-0.005387,-2.449206,-9.513850
46.314267,0.038458,-2.340715,-9.653317
46.347693,-0.014066,-2.434990,-9.510707
46.381010,0.041002,-2.310786,-9.663493
46.414303,0.060605,-2.175360,-9.746095
46.447686,0.088589,-2.142588,-9.718262
46.481005,0.058211,-2.246440,-9.759264
46.514356,0.073924,-2.165633,-9.708086
46.547671,0.070482,-2.223096,-9.711528
46.581449,0.093228,-2.182393,-9.705393
46.614296,0.054769,-2.244195,-9.579693
46.647722,0.009278,-2.331138,-9.499035
46.681195,0.065843,-2.211274,-9.597949
46.714314,0.078263,-2.231925,-9.692972
46.747688,0.066292,-2.224891,-9.612015
46.780989,0.034717,-2.303304,-9.476589
46.822712,0.061952,-2.298965,-9.605431
46.847663,0.001048,-2.286694,-9.518638
46.881049,-0.030527,-2.366902,-9.432743
46.914298,0.032473,-2.296870,-9.528664
46.947688,-0.009727,-2.313181,-9.461774
46.981011,-0.004040,-2.373337,-9.490056
47.014506,-0.010176,-2.296121,-9.440375
47.047671,-0.019304,-2.341314,-9.433042
47.081026,-0.002993,-2.280559,-9.496641
47.114348,-0.005686,-2.326349,-9.441572
47.147717,-0.019005,-2.387853,-9.479432
47.180990,-0.034418,-2.395335,-9.468957
47.214556,-0.014964,-2.432147,-9.515645
47.247590,0.005238,-2.370195,-9.424363
47.280994,0.005238,-2.428705,-9.491403
47.314401,0.004789,-2.398477,-9.522379
47.347728,-0.019454,-2.410299,-9.481976
47.380955,0.002993,-2.388750,-9.562633
47.414515,0.044294,-2.332934,-9.599296
47.447705,-0.013468,-2.410898,-9.532705
47.481716,-0.001945,-2.305998,-9.564878
47.514433,0.061054,-2.194364,-9.692374
47.547686,0.099513,-2.170272,-9.695217
47.581130,0.066441,-2.270233,-9.542880
47.614661,-0.018107,-2.386206,-9.486465
47.647745,0.065693,-2.197507,-9.639999
47.681031,0.077665,-2.185685,-9.641046
47.714357,0.038907,-2.202445,-9.639999
47.747765,0.106396,-2.207084,-9.646882
47.781005,0.056116,-2.251079,-9.609471
47.814502,-0.004789,-2.375731,-9.447109
47.847780,-0.036214,-2.423318,-9.395332
47.881959,-0.006884,-2.395484,-9.477337
47.924022,0.048784,-2.194065,-9.660799
47.947676,-0.001945,-2.377078,-9.489757
47.980935,-0.040553,-2.429304,-9.423166
48.014292,-0.001197,-2.374834,-9.522828
48.047745,-0.028731,-2.400273,-9.464168
48.080971,-0.008829,-2.396532,-9.524025
48.114341,-0.029480,-2.410149,-9.438729
48.147749,-0.013618,-2.364508,-9.519087
48.180934,-0.035765,-2.404613,-9.467311
48.214304,0.010924,-2.388900,-9.467161
48.247761,0.013169,-2.332185,-9.570115
48.281026,0.063598,-2.259459,-9.604683
48.314263,0.016012,-2.338321,-9.552158
48.347709,0.007482,-2.367202,-9.480330
48.381003,0.032772,-2.346401,-9.534650
48.414301,0.031575,-2.307644,-9.588671
48.447619,0.051926,-2.216661,-9.603785
48.481073,0.035166,-2.337572,-9.608723
48.514539,0.065244,-2.259758,-9.567571
48.547646,0.006884,-2.335477,-9.574605
48.581035,0.022147,-2.252875,-9.615308
48.614728,-0.007183,-2.376330,-9.585379
48.647707,0.012271,-2.238808,-9.648079
48.680980,0.067339,-2.174462,-9.654963
48.714389,0.030527,-2.297618,-9.626231
48.747826,0.024392,-2.246290,-9.567272
48.781022,-0.004040,-2.380819,-9.471201
48.814528,0.063898,-2.183740,-9.671723
48.847713,0.091432,-2.150668,-9.662744
48.881123,0.028582,-2.261703,-9.584930
48.914423,0.100859,-2.150968,-9.661697
48.947686,0.047138,-2.226687,-9.550961
48.981067,-0.029180,-2.391893,-9.465814
49.014321,0.057613,-2.212621,-9.534500
49.060893,0.033520,-2.322159,-9.601690
49.081147,0.072128,-2.207832,-9.543329
49.114346,-0.011971,-2.381717,-9.433491
49.147637,-0.069285,-2.491106,-9.408651
49.180965,-0.014216,-2.394138,-9.470304
49.214314,-0.082304,-2.549617,-9.371988
49.247814,-0.148595,-2.335178,-9.279658
49.280971,-0.025290,-2.398328,-9.284297
49.314422,-0.080807,-2.470156,-9.575652
49.347665,-0.007033,-2.284898,-9.474942
49.382509,-0.063149,-2.446213,-9.458482
49.414505,0.019005,-2.344606,-9.513401
49.447726,-0.006734,-2.415088,-9.576400
49.481119,0.045342,-2.263499,-9.478983
49.514711,0.077964,-2.240903,-9.687435
49.547798,-0.009876,-2.313031,-9.644039
49.581040,0.027385,-2.243447,-9.588521
49.614681,0.118068,-2.245542,-9.713324
49.647730,0.001646,-2.264996,-9.495743
49.681059,0.043396,-2.192269,-9.456387
49.714351,0.087691,-2.237312,-9.600194
49.747715,0.036513,-2.205587,-9.663044
49.781035,-0.035914,-2.366154,-9.339366
49.814543,0.028881,-2.308991,-9.609920
49.847720,0.001197,-2.353135,-9.651970
49.881006,0.027834,-2.290585,-9.678457
49.914401,0.084099,-2.233870,-9.557845
49.947747,0.058211,-2.212471,-9.596602
49.980980,0.062700,-2.211872,-9.482125
50.014298,0.052076,-2.227286,-9.741905
50.047802,-0.023644,-2.289387,-9.606778
50.080998,0.078563,-2.180597,-9.565177
50.124269,0.051477,-2.160844,-9.738314
50.147636,-0.009876,-2.299414,-9.410746
50.181050,0.041301,-2.279062,-9.590467
50.214353,0.011373,-2.289088,-9.437083
50.247699,-0.033370,-2.381867,-9.359268
50.280936,-0.022297,-2.377377,-9.483771
50.314277,-0.036962,-2.518491,-9.410596
50.347622,0.036663,-2.326798,-9.501579
50.381010,-0.008380,-2.376031,-9.352983
50.414512,0.011523,-2.366005,-9.418228
50.447703,-0.031425,-2.414339,-9.422418
50.480981,-0.059857,-2.418529,-9.431845
50.514374,-0.036064,-2.371392,-9.582536
50.547626,0.036363,-2.276219,-9.661098
50.581002,0.071829,-2.188528,-9.720806
50.614411,0.089187,-2.248535,-9.590766
50.647637,0.010325,-2.386356,-9.497389
50.680967,0.019304,-2.240753,-9.602738
50.714439,-0.020501,-2.422420,-9.525372
50.747819,0.005088,-2.279361,-9.624436
50.781061,0.065544,-2.199003,-9.662595
50.814663,0.065394,-2.225939,-9.640298
50.847673,0.106845,-2.141091,-9.656160
50.881039,0.097268,-2.193466,-9.569966
50.914349,0.071829,-2.186583,-9.653317
50.947673,-0.016461,-2.404014,-9.414636
50.981034,0.044743,-2.231925,-9.670975
51.014434,0.076019,-2.200350,-9.554702
51.048213,0.065993,-2.238808,-9.476439
51.081009,0.034867,-2.226088,-9.682797
51.114402,0.049831,-2.305100,-9.586576
51.148069,0.000000,-2.403415,-9.511006
51.181003,0.067788,-2.171170,-9.568320
51.214301,-0.008679,-2.371691,-9.510707
51.247734,-0.011672,-2.377078,-9.498885
51.288076,0.004190,-2.341762,-9.545424
51.314302,-0.010325,-2.393988,-9.555001
51.347649,0.034418,-2.312133,-9.502028
51.381214,-0.021998,-2.397729,-9.482125
51.414298,-0.012271,-2.380670,-9.523876
51.448065,0.011971,-2.372739,-9.504123
51.481027,0.014216,-2.342960,-9.672471
51.514379,0.049532,-2.221150,-9.612464
51.547707,0.002993,-2.397430,-9.486764
51.581079,0.012720,-2.365256,-9.499484
51.614740,0.000599,-2.309290,-9.559790
51.647655,-0.012570,-2.542134,-9.155604
51.681058,0.081705,-2.337572,-9.256464
51.714419,0.175082,-2.038885,-9.689830
51.747609,0.171940,-1.826093,-9.842765
51.780969,0.032622,-2.100688,-9.319763
51.814444,0.088140,-2.337273,-9.512054
51.847833,0.062850,-2.321112,-9.679355
51.881020,0.135277,-2.204839,-9.855784
51.914467,-0.020950,-2.363910,-9.537792
51.947582,0.076767,-2.179849,-9.690877
51.981021,0.116871,-2.090811,-9.647930
52.014693,0.011223,-2.285347,-9.537942
52.047744,-0.076168,-2.466565,-9.396230
52.080962,0.095771,-2.135704,-9.667832
52.114429,0.111035,-2.198554,-9.661697
52.147756,0.007931,-2.292530,-9.463270
52.180972,0.068088,-2.149322,-9.634462
52.214524,0.040853,-2.252426,-9.529861
52.247766,-0.033071,-2.375881,-9.389945
52.281001,0.030078,-2.283551,-9.543180
52.314400,-0.035914,-2.381119,-9.392190
52.351089,0.023045,-2.265295,-9.553954
52.381004,-0.016311,-2.319765,-9.435137
52.414332,-0.010625,-2.371990,-9.449503
52.447603,-0.000299,-2.328744,-9.524325
52.481170,-0.003143,-2.386955,-9.405807
52.514425,-0.017957,-2.417482,-9.533602
52.547659,-0.017209,-2.383513,-9.414487
52.580988,-0.008380,-2.361665,-9.519985
52.615431,0.013169,-2.338021,-9.584182
52.647676,0.041451,-2.303005,-9.636258
52.680992,0.042199,-2.237910,-9.680851
52.714420,-0.003591,-2.395035,-9.484370
52.747684,0.005686,-2.397579,-9.550363
52.781044,0.025439,-2.308991,-9.613512
52.814762,0.041601,-2.254221,-9.650923
52.847762,0.045791,-2.328444,-9.578944
52.881011,0.053871,-2.234020,-9.670526
52.914418,0.060156,-2.193167,-9.663642
52.947686,0.037560,-2.216811,-9.563082
52.981021,0.004340,-2.306896,-9.426009
53.014849,0.053722,-2.242699,-9.668730
53.047725,0.082902,-2.163687,-9.694020
53.081028,0.053423,-2.236264,-9.653018
53.114355,0.098166,-2.169673,-9.713174
53.147623,0.056864,-2.229830,-9.647630
53.181039,0.093228,-2.181345,-9.681001
53.214444,0.075869,-2.197207,-9.650025
53.248138,0.011373,-2.287292,-9.527168
53.281003,0.109988,-2.197507,-9.652419
53.314314,0.005088,-2.299414,-9.532555
53.347818,-0.031724,-2.412843,-9.404461
53.380972,0.012271,-2.312283,-9.526420
53.414544,-0.058660,-2.392192,-9.409848
53.457364,0.028133,-2.311535,-9.516842
53.480950,-0.036363,-2.401470,-9.416731
53.514306,-0.015713,-2.401470,-9.449354
53.547591,-0.035016,-2.383812,-9.451449
53.581006,-0.017508,-2.374834,-9.382912
53.614345,0.011971,-2.378275,-9.495294
53.647642,0.048185,-2.275920,-9.574754
53.681020,0.017658,-2.362862,-9.485866
53.715150,-0.029929,-2.372888,-9.455938
53.747718,0.016012,-2.329192,-9.519686
53.780955,0.049083,-2.297319,-9.557396
53.814690,0.071529,-2.226088,-9.631020
53.847624,0.042948,-2.329192,-9.509959
53.880982,0.037411,-2.265295,-9.625184
53.914287,0.045491,-2.336675,-9.571911
53.947688,0.038009,-2.293278,-9.608873
53.980973,0.014366,-2.253323,-9.645835
54.014340,0.040254,-2.285347,-9.618749
54.047676,0.032622,-2.240005,-9.643740
54.081112,0.036214,-2.246440,-9.624286
54.114339,0.065394,-2.238359,-9.659452
54.149131,0.039206,-2.241651,-9.607077
54.181574,0.033819,-2.258860,-9.624885
54.214254,0.031575,-2.236264,-9.616205
54.247821,0.043396,-2.255119,-9.581788
54.281155,0.040853,-2.202595,-9.611118
54.314432,0.055966,-2.234468,-9.581488
54.347663,0.005986,-2.342660,-9.517890
54.381236,0.069434,-2.227435,-9.577149
54.414485,0.026188,-2.324703,-9.513850
54.448167,-0.001646,-2.393240,-9.474045
54.481462,0.032772,-2.322758,-9.540187
54.518823,0.055069,-2.205438,-9.622341
54.547655,0.029180,-2.299264,-9.519835
54.580973,-0.002694,-2.395335,-9.477486
54.614307,0.001347,-2.435589,-9.502926
54.647672,-0.001347,-2.399525,-9.439028
54.680957,0.000449,-2.444418,-9.509211
54.714347,0.002993,-2.391893,-9.551410
54.747734,-0.011223,-2.445465,-9.513251
54.781021,0.001796,-2.403864,-9.573856
54.814358,-0.026936,-2.458035,-9.473596
54.847802,0.058660,-2.160844,-9.702998
54.881016,0.027834,-2.266342,-9.631020
54.914526,0.051776,-2.281905,-9.527168
54.947863,0.041301,-2.262601,-9.606628
54.980940,0.054919,-2.189276,-9.673369
55.014633,0.065693,-2.259160,-9.624885
55.048036,0.068836,-2.191371,-9.659003
55.080990,0.051926,-2.298216,-9.612464
55.114333,0.073325,-2.215464,-9.628027
55.147628,0.063299,-2.220402,-9.627429
55.180971,0.062251,-2.203941,-9.679804
55.214511,0.059109,-2.237461,-9.677559
55.247785,0.049981,-2.271131,-9.566225
55.281044,0.050729,-2.225490,-9.667234
55.314380,0.045791,-2.247936,-9.593310
55.347810,0.017359,-2.338171,-9.503075
55.381238,0.046389,-2.259608,-9.588372
55.414323,-0.004040,-2.324554,-9.513850
55.447783,0.054470,-2.247936,-9.576400
55.480974,0.089935,-2.286245,-9.639550
55.514263,-0.051328,-2.389199,-9.305696
55.547856,-0.000449,-2.298067,-9.506218
55.587480,-0.084099,-2.347449,-9.455788
55.614401,0.003591,-2.313929,-9.459230
55.647637,-0.005836,-2.384560,-9.522379
55.681090,0.051776,-2.398926,-9.601840
55.714350,0.073026,-2.218157,-9.681001
55.747983,0.051028,-2.353884,-9.481377
55.781006,-0.003741,-2.418679,-9.502776
55.815140,0.041301,-2.416434,-9.446810
55.847739,0.094125,-2.383662,-9.516094
55.881378,0.124503,-2.418080,-9.607376
55.914598,0.211445,-2.296121,-9.675464
55.947612,0.204861,-2.250780,-9.717963
55.980986,0.232246,-2.204390,-9.659452
56.015120,0.156975,-2.424216,-9.469106
56.047781,0.260229,-2.223694,-9.616056
56.081300,0.308713,-2.144533,-9.730832
56.114393,0.177177,-2.293278,-9.584481
56.149671,0.236735,-2.212920,-9.682198
56.181111,0.278037,-2.193915,-9.615607
56.214708,0.268759,-2.271281,-9.554104
56.247688,0.191693,-2.420924,-9.395183
56.281097,0.365727,-2.158749,-9.634911
56.314331,0.470178,-2.208880,-9.758067
56.347676,0.461648,-2.344007,-9.619198
56.381094,0.462397,-2.187181,-9.645984
56.414383,0.443392,-2.252126,-9.550662
56.448027,0.439352,-2.427059,-9.464916
56.481185,0.561760,-2.327546,-9.614859
56.514444,0.503100,-2.424066,-9.484220
56.548036,0.509385,-2.474945,-9.409249
56.581020,0.682073,-2.496793,-9.497389
56.614328,0.733550,-2.405211,-9.577149
56.647706,0.706913,-2.393389,-9.436484
56.681063,0.737291,-2.451451,-9.424962
56.714324,0.754799,-2.445764,-9.414337
56.747744,0.707063,-2.454593,-9.362411
56.792182,0.731754,-2.497690,-9.402964
56.814254,0.869276,-2.446513,-9.538092
56.847633,0.925542,-2.415686,-9.507116
56.880972,0.954123,-2.341912,-9.601091
56.914391,0.855359,-2.471503,-9.413888
56.948199,0.906088,-2.414190,-9.467011
56.981024,0.973727,-2.404164,-9.503824
57.014369,0.995874,-2.507417,-9.560389
57.048540,0.980461,-2.475992,-9.485118
57.081123,0.929283,-2.393689,-9.547519
57.114343,1.076232,-2.396831,-9.537493
57.147806,1.039121,-2.332784,-9.573557
57.181114,1.006648,-2.286245,-9.644039
57.214528,1.006498,-2.333233,-9.589719
57.247632,1.020116,-2.320364,-9.633863
57.281044,1.039570,-2.435289,-9.662744
57.314338,1.066505,-2.352237,-9.752829
57.347670,1.045705,-2.333083,-9.619647
57.381077,1.103617,-2.322010,-9.671573
57.414262,1.090149,-2.265445,-9.640448
57.447685,1.071743,-2.312133,-9.564429
57.481500,1.099876,-2.247936,-9.619946
57.514303,0.950682,-2.304052,-9.471950
57.547905,1.031788,-2.250780,-9.606778
57.581032,1.043760,-2.299713,-9.510707
57.614414,0.998268,-2.571913,-9.463121
57.647777,0.943948,-2.610521,-9.422119
57.681012,0.965945,-2.547073,-9.446211
57.714462,0.981957,-2.541685,-9.414936
57.747632,1.037175,-2.504873,-9.508612
57.780946,1.026700,-2.492004,-9.394584
57.814354,0.945444,-2.537495,-9.426159
57.855278,1.121574,-2.303005,-9.566524
57.880974,1.118431,-2.304052,-9.644638
57.914473,1.051092,-2.439928,-9.599894
57.947734,1.033135,-2.478237,-9.410596
57.981066,1.089401,-2.524626,-9.523576
58.014354,1.048099,-2.510260,-9.458332
58.048640,1.040168,-2.437833,-9.576400
58.081392,1.049895,-2.355230,-9.559341
58.114264,1.077429,-2.327097,-9.621144
58.147673,1.056180,-2.436636,-9.630870
58.181459,1.084462,-2.336824,-9.519237
58.214727,1.112895,-2.441724,-9.637155
58.247768,1.172004,-2.305848,-9.671573
58.281020,1.123669,-2.394287,-9.563980
58.314384,1.052888,-2.464320,-9.513850
58.347779,1.088054,-2.405361,-9.557396
58.381066,1.090448,-2.339219,-9.563980
58.414547,1.088353,-2.473598,-9.500382
58.447829,1.140579,-2.210226,-9.522230
58.481102,1.162426,-2.483175,-9.615457
58.514765,1.158386,-2.294475,-9.545125
58.547757,1.101372,-2.231925,-9.592711
58.581041,1.149557,-2.364059,-9.681899
58.614326,1.171255,-2.235217,-9.671124
58.647788,1.128457,-2.254970,-9.587474
58.681423,1.104365,-2.240753,-9.680851
58.714414,1.238595,-2.231925,-9.733376
58.748269,1.196695,-2.154559,-9.690279
58.781029,1.140279,-2.210077,-9.645685
58.815147,1.066805,-2.382166,-9.552308
58.847899,1.149108,-2.335328,-9.748789
58.880951,1.102420,-2.307644,-9.501878
58.914364,1.019966,-2.471054,-9.316321
58.958447,1.167514,-2.306896,-9.678008
58.980942,1.055881,-2.577749,-9.457584
59.014296,1.074586,-2.551263,-9.519835
59.048536,1.035978,-2.407905,-9.385456
59.080977,1.050793,-2.584483,-9.404461
59.114305,1.073239,-2.456389,-9.508462
59.147601,1.004852,-2.588524,-9.366751
59.181014,1.064859,-2.554405,-9.448306
59.214573,1.033883,-2.496044,-9.309587
59.247664,1.053786,-2.527020,-9.436634
59.281009,1.018470,-2.453546,-9.497239
59.314352,1.065907,-2.524177,-9.422567
59.347694,1.068301,-2.472101,-9.530011
59.380967,1.092543,-2.399225,-9.550662
59.414815,1.059771,-2.546923,-9.500382
59.447662,1.100025,-2.431249,-9.598697
59.481466,1.099576,-2.509363,-9.524025
59.514321,1.047950,-2.447560,-9.589868
59.547872,1.108106,-2.341014,-9.619348
59.581013,1.172752,-2.323955,-9.683545
59.614320,1.121275,-2.326499,-9.631619
59.647681,1.135640,-2.312732,-9.636108
59.680987,1.078327,-2.430950,-9.724397
59.714747,1.164222,-2.257065,-9.617552
59.747785,1.174697,-2.339817,-9.609621
59.781129,1.141327,-2.288789,-9.620395
59.814372,1.168412,-2.287592,-9.584032
59.847668,1.125165,-2.394886,-9.440674
59.881423,1.115439,-2.272478,-9.570714
59.914304,1.013083,-2.568322,-9.456836
59.947708,1.202680,-2.227884,-9.604982
59.981053,1.099876,-2.387553,-9.570265
60.021139,1.111398,-2.225789,-9.644338
60.047624,1.113044,-2.294026,-9.635060
60.081005,1.125165,-2.471054,-9.436035
60.114353,1.059023,-2.531659,-9.431396
60.147634,1.018171,-2.550514,-9.527317
60.181044,1.063961,-2.405061,-9.657357
60.214783,1.031788,-2.486467,-9.489607
60.247675,1.045406,-2.558894,-9.406855
60.281091,0.981957,-2.542284,-9.471800
60.314874,1.012933,-2.606930,-9.493199
60.347687,1.090149,-2.527320,-9.413888
60.380989,1.086557,-2.548120,-9.548567
60.414582,1.002159,-2.607079,-9.366002
60.447611,1.187566,-2.232972,-9.630272
60.481095,1.185322,-2.238509,-9.599894
60.514839,1.156141,-2.442173,-9.521930
60.547615,1.095686,-2.355829,-9.615008
60.581040,1.027149,-2.513104,-9.496491
60.615669,1.113344,-2.357026,-9.619498
60.647932,1.226623,-2.311086,-9.760312
60.680977,1.125315,-2.301209,-9.620096
60.714380,1.077878,-2.336226,-9.658255
60.747687,1.127560,-2.311984,-9.606179
60.781130,1.135341,-2.295523,-9.647481
60.814497,1.151054,-2.332934,-9.783357
60.847621,1.122172,-2.300012,-9.748639
60.881007,1.118880,-2.346102,-9.603186
60.914831,1.106759,-2.397430,-9.553804
60.947669,1.135640,-2.321112,-9.647780
60.981099,1.098978,-2.363461,-9.584780
61.014463,1.045106,-2.529265,-9.494695
61.048240,1.027149,-2.555602,-9.453843
61.081032,1.062465,-2.391444,-9.485417
61.114630,1.052738,-2.465966,-9.323803
61.149931,1.081769,-2.452648,-9.412092
61.180966,1.050344,-2.546025,-9.424513
61.214257,1.033434,-2.429004,-9.341461
61.247720,1.007995,-2.557847,-9.335625
61.281167,1.168262,-2.238359,-9.667234
61.314803,0.994826,-2.416434,-9.486166
61.347779,1.092094,-2.341164,-9.361513
61.381359,1.033285,-2.656911,-9.413290
61.414533,1.009940,-2.708537,-9.419275
61.447756,1.035978,-2.691777,-9.626231
61.481341,1.106909,-2.520137,-9.563531
61.514349,1.122771,-2.354632,-9.770487
61.547767,1.166916,-2.272927,-9.578495
61.581000,1.065009,-2.573709,-9.473446
61.614920,1.169460,-2.371990,-9.467460
61.647687,1.121125,-2.331736,-9.726642
61.680911,1.063961,-2.364059,-9.535099
61.714354,1.140579,-2.244195,-9.545873
61.747741,1.162426,-2.274423,-9.667084
61.781028,1.161229,-2.276817,-9.720656
61.815540,1.134144,-2.215763,-9.701053
61.847670,1.073838,-2.367351,-9.682198
61.881021,1.174398,-2.256616,-9.619049
61.914309,1.136089,-2.308392,-9.538690
61.947778,1.017871,-2.372140,-9.409997
61.981838,1.156141,-2.307345,-9.510258
62.014300,1.107956,-2.500085,-9.528814
62.047827,1.218991,-2.283551,-9.633265
62.081393,1.060968,-2.456838,-9.544227
62.114457,1.010389,-2.609324,-9.282801
62.147942,1.010688,-2.470006,-9.540636
62.181775,1.070845,-2.308093,-9.472698
62.214788,1.118282,-2.354931,-9.459529
62.254695,1.106909,-2.338770,-9.566225
62.280921,1.071443,-2.378724,-9.535847
62.314297,1.035978,-2.427807,-9.354480
62.347930,1.085660,-2.470904,-9.216060
62.381054,1.063512,-2.415836,-9.434988
62.414650,1.086707,-2.520735,-9.487064
62.447792,1.110800,-2.430950,-9.378872
62.481039,1.157039,-2.484372,-9.567123
62.514387,1.137885,-2.557099,-9.521032
62.547837,1.136239,-2.386057,-9.592113
62.582078,1.024456,-2.426610,-9.420472
62.614515,1.051092,-2.634165,-9.461774
62.647748,1.119928,-2.335777,-9.438430
62.681041,1.044657,-2.410149,-9.247485
62.714406,1.000513,-2.385907,-9.550662
62.748117,1.103168,-2.310786,-9.737117
62.781047,1.095536,-2.429004,-9.554253
62.814318,1.097032,-2.357924,-9.604384
62.848760,1.112446,-2.368549,-9.621293
62.881009,1.150305,-2.338470,-9.582536
62.914305,1.141476,-2.359869,-9.760012
62.947730,1.169310,-2.315126,-9.467610
62.981017,1.030142,-2.320663,-9.106821
63.014292,1.074137,-2.217559,-9.184934
63.047807,1.070097,-2.594809,-9.990313
63.081538,0.916264,-2.557997,-9.632965
63.114347,0.965496,-2.537795,-9.388598
63.147891,1.010688,-2.400423,-9.678158
63.180935,1.003955,-2.458933,-9.706590
63.214491,0.874513,-2.517892,-9.498436
63.247670,0.968040,-2.374085,-9.456387
63.281004,0.921801,-2.474945,-9.534351
63.314296,0.953375,-2.546025,-9.552906
63.347656,0.877057,-2.527769,-9.556348
63.386430,0.844136,-2.446064,-9.481527
63.414438,0.881547,-2.450104,-9.588073
63.447638,0.806725,-2.608725,-9.319463
63.480973,0.866582,-2.504275,-9.593011
63.514346,0.786074,-2.382615,-9.597650
63.548312,0.860597,-2.448009,-9.559790
63.581095,0.891872,-2.328145,-9.685041
63.614312,0.991983,-2.370494,-9.785452
63.647747,0.877506,-2.354781,-9.644189
63.681004,0.776946,-2.518640,-9.699257
63.714417,0.856556,-2.348496,-9.430798
63.747675,0.786972,-2.312582,-9.409249
63.780953,0.814806,-2.111911,-9.403413
63.814265,0.744324,-2.350891,-9.533602
63.847679,0.772457,-2.359121,-9.421370
63.881022,0.730258,-2.410149,-9.602738
63.914416,0.766770,-2.248236,-9.643740
63.949409,0.738189,-2.368848,-9.638951
63.980939,0.857604,-2.204091,-9.745796
64.014265,0.854910,-2.317371,-9.622640
64.047600,0.621766,-2.415387,-9.662445
64.080923,0.797597,-2.237761,-9.825706
64.114253,0.701227,-2.522232,-9.354330
64.147583,0.759288,-2.340266,-9.343107
64.181036,0.648403,-2.350142,-9.564279
64.214230,0.629099,-2.419278,-9.482724
64.247609,0.679828,-2.418978,-9.426159
64.280934,0.603660,-2.410898,-9.340862
64.314242,0.631493,-2.506370,-9.555151
64.347584,0.678182,-2.437684,-9.565177
64.380934,0.632241,-2.449056,-9.423465
64.416547,0.641220,-2.447710,-9.646583
64.447571,0.626555,-2.439479,-9.537643
64.480932,0.652443,-2.357625,-9.533004
64.514252,0.635234,-2.424066,-9.394285
64.548508,0.575527,-2.447859,-9.380967
64.580917,0.616679,-2.500234,-9.448755
64.614259,0.649001,-2.484971,-9.426009
64.647606,0.759887,-2.187930,-9.620994
64.680942,0.631044,-2.274274,-9.540486
64.714244,0.652294,-2.483923,-9.525372
64.747630,0.628351,-2.391294,-9.613961
64.780935,0.700329,-2.387553,-9.524474
64.814232,0.578220,-2.409251,-9.696863
64.847696,0.637928,-2.199452,-9.708535
64.880971,0.667557,-2.291782,-9.690728
64.914262,0.619223,-2.471353,-9.550811
64.947584,0.663218,-2.217110,-9.862218
64.980948,0.600966,-2.216511,-9.824059
65.014254,0.568494,-2.328893,-9.738015
65.047624,0.657681,-2.261255,-9.662445
65.080922,0.599919,-2.191371,-9.643291
65.114370,0.386079,-2.475094,-9.508911
65.147628,0.549788,-2.379323,-9.721704
65.180957,0.461499,-2.360617,-9.526569
65.214283,0.297789,-2.479883,-9.262898
65.247710,0.475266,-2.377377,-9.624436
65.280950,0.526444,-2.489610,-9.616205
65.314252,0.512826,-2.444418,-9.518788
65.347624,0.486190,-2.309889,-9.356126
65.380922,0.525396,-2.593462,-9.432594
65.414353,0.593035,-2.597802,-9.651970
65.447622,0.542156,-2.415686,-9.404760
65.480932,0.358245,-2.690431,-9.400271
65.514258,0.447432,-2.490956,-9.449204
65.591997,0.460002,-2.510709,-9.361663
65.618377,0.488584,-2.742806,-9.624885
65.647672,0.455363,-2.697314,-9.530759
65.680930,0.543802,-2.489759,-9.701951
65.714254,0.574330,-2.392342,-9.767345
65.747604,0.603959,-2.338620,-9.799069
65.780932,0.475715,-2.201697,-9.611866
65.814259,0.387575,-2.413591,-9.450551
65.847595,0.568194,-2.249283,-9.798770
65.881021,0.661871,-2.274722,-9.879727
65.914309,0.484694,-2.190922,-9.739810
65.947592,0.504895,-2.273675,-9.746544
65.980915,0.496665,-2.216811,-9.701951
66.014245,0.460302,-2.227585,-9.644039
66.047672,0.471525,-2.224293,-9.547519
66.080917,0.501603,-2.273076,-9.781262
66.114260,0.487986,-2.443520,-9.579543
66.147588,0.442195,-2.298665,-9.419126
66.180955,0.481401,-2.216212,-9.610070
66.214280,0.493522,-2.356876,-9.539439
66.247621,0.419000,-2.355380,-9.382014
66.280879,0.448929,-2.314378,-9.501429
66.314280,0.395656,-2.381268,-9.360615
66.347623,0.450126,-2.300611,-9.452795
66.380926,0.430074,-2.235965,-9.372886
66.414266,0.415409,-2.371691,-9.503674
66.447599,0.445188,-2.571464,-9.432743
66.480960,0.330561,-2.425563,-9.148870
66.514238,0.400295,-2.416434,-9.471501
66.547688,0.444140,-2.534054,-9.527317
66.582617,0.373359,-2.491555,-9.377824
66.614527,0.464641,-2.329641,-9.664690
66.647689,0.466736,-2.245991,-9.585678
66.680917,0.427231,-2.338919,-9.564130
66.714328,0.407927,-2.299713,-9.271578
66.747589,0.374107,-2.499037,-9.592263
66.780916,0.404934,-2.334729,-9.490805
66.814274,0.367224,-2.442023,-9.610669
66.847591,0.493373,-2.402368,-9.751183
66.880919,0.504297,-2.410000,-9.653167
66.914290,0.428727,-2.364658,-9.516992
66.947613,0.412715,-2.465068,-9.678307
66.980949,0.506691,-2.386356,-9.461475
67.014287,0.512527,-2.323207,-9.845907
67.047591,0.494271,-2.214716,-9.666485
67.080935,0.520309,-2.204690,-9.708834
67.114247,0.440998,-2.397729,-9.610519
67.147588,0.429326,-2.371541,-9.387850
67.180935,0.365727,-2.466265,-9.458931
67.214290,0.317842,-2.374385,-9.354480
67.247604,0.371264,-2.313630,-9.396679
67.280938,0.366176,-2.331287,-9.417180
67.314291,0.284022,-2.408503,-9.446959
67.347680,0.393262,-2.333532,-9.591514
67.380914,0.311706,-2.524925,-9.143932
67.414213,0.348219,-2.568472,-9.390095
67.447611,0.287015,-2.418679,-9.432145
67.481046,0.406430,-2.323955,-9.248682
67.514258,0.431421,-2.483774,-9.591065
67.547631,0.377699,-2.322010,-9.627728
67.580923,0.406580,-2.248535,-9.653317
67.614262,0.411219,-2.268587,-9.804307
67.647602,0.410321,-2.604685,-9.647032
67.681169,0.387126,-2.481679,-9.873741
67.714263,0.398200,-2.382765,-9.576251
67.747617,0.492026,-2.463721,-9.653018
67.780979,0.475565,-2.555752,-9.762407
67.814283,0.389820,-2.326349,-9.906812
67.847726,0.458207,-2.223844,-9.695367
67.880971,0.354354,-2.344456,-9.613811
67.914330,0.436209,-2.286694,-9.480180
67.947698,0.402240,-2.156355,-9.784105
67.981052,0.374407,-2.078092,-9.422268
68.014493,0.468382,-2.192868,-9.660200
68.048316,0.394459,-2.317969,-9.565028
68.081061,0.356749,-2.226388,-9.311682
68.114286,0.411069,-2.009705,-9.382762
68.148167,0.451772,-1.993244,-9.396230
68.181559,0.457010,-2.151866,-9.651521
68.214499,0.447283,-2.192718,-9.690428
68.247799,0.297191,-2.330988,-9.524923
68.281359,0.289709,-2.231176,-9.784404
68.314336,0.287464,-2.275471,-9.648977
68.347709,0.320834,-2.165932,-9.799668
68.382315,0.305122,-2.137500,-9.589569
68.414260,0.376801,-2.335777,-9.250927
68.447762,0.469280,-2.478237,-9.459080
68.481591,0.431271,-2.451900,-9.493498
68.514324,0.291654,-2.581790,-9.404311
68.548062,0.233742,-2.503826,-9.714970
68.581439,0.198127,-2.565778,-9.692673
68.615995,0.162512,-2.510859,-9.753578
68.647796,0.172987,-2.619051,-9.382313
68.680966,0.253346,-2.748791,-9.594657
68.714318,0.291504,-2.531809,-9.218155
68.747608,0.400594,-2.390845,-9.357622
68.780909,0.404784,-2.327846,-9.462522
68.814329,0.442943,-2.224742,-9.543479
68.847598,0.488734,-2.227136,-9.636407
68.880890,0.363333,-2.358522,-9.089013
68.914358,0.338492,-2.405959,-9.502926
68.947638,0.349267,-2.399974,-9.172664
68.980979,0.270854,-2.451451,-9.248533
69.014302,0.239429,-2.588075,-9.510109
69.048662,0.243768,-2.219355,-9.215312
69.082085,0.187203,-2.528816,-9.127472
69.114321,0.471226,-2.292829,-9.624735
69.147746,0.522104,-2.108020,-9.791288
69.181202,0.325623,-2.231326,-9.679504
69.214269,0.414511,-2.285197,-9.682048
69.247638,0.427530,-2.335029,-9.776323
69.281021,0.312754,-2.334280,-9.781262
69.315410,0.212792,-2.416584,-9.780214
69.347756,0.153085,-2.728290,-9.534500
69.381356,0.273398,-2.544529,-9.629224
69.414327,0.271003,-2.570866,-9.526569
69.449020,0.369768,-2.446064,-9.560688
69.480928,0.275343,-2.459980,-9.402515
69.514303,0.379495,-2.299563,-9.349542
69.547927,0.331908,-2.152913,-9.399373
69.583237,0.321283,-2.406708,-9.341910
69.614678,0.288063,-2.251977,-9.501280
69.647989,0.279383,-2.342660,-9.235813
69.681012,0.308414,-2.330539,-9.356276
69.714802,0.254393,-2.440676,-9.434389
69.747696,0.241973,-2.438581,-9.363010
69.781078,0.244517,-2.461477,-9.352535
69.817829,0.270405,-2.586129,-9.545873
69.848106,0.251251,-2.472101,-9.366002
69.881102,0.317692,-2.186433,-9.537942
69.915077,0.260079,-2.508465,-9.458931
69.953613,0.259331,-2.510560,-9.390245
69.980958,0.268908,-2.218606,-9.666485
70.014274,0.287165,-2.366454,-9.698210
70.047596,0.395207,-2.206635,-9.745347
70.081057,0.284621,-2.318717,-9.452496
70.114622,0.316345,-2.151417,-9.828549
70.147614,0.386079,-2.277416,-9.556199
70.181834,0.369768,-2.185835,-9.463420
70.214518,0.370815,-2.343857,-9.465216
70.249218,0.201569,-2.485420,-9.612015
70.281891,0.367822,-2.343857,-9.450401
70.314662,0.282676,-2.221898,-9.433491
70.350879,0.236585,-2.373636,-9.313927
70.382099,0.213840,-2.236713,-9.268585
70.414228,0.142011,-2.316174,-8.835967
70.448810,0.216982,-2.315425,-9.373784
70.481297,0.195434,-2.531061,-9.402815
70.514252,0.263671,-2.599448,-9.606479
70.548707,0.353606,-2.492154,-9.815081
70.581100,0.257236,-2.483025,-9.765549
70.616196,0.286866,-2.202744,-9.871796
70.648927,0.446535,-1.865748,-10.580953
70.681007,-0.065095,-2.793086,-9.211870
70.715259,0.132733,-2.901128,-10.081146
70.749279,0.260379,-3.098208,-9.964724
70.781509,0.099812,-2.955149,-9.681749
70.816940,0.189149,-2.592863,-9.954398
70.848131,0.278336,-2.609773,-9.892446
70.881160,0.386378,-2.171170,-9.499334
70.916281,0.400893,-2.320364,-9.537344
70.948759,0.307666,-2.566077,-9.264993
70.981045,0.331609,-2.674419,-9.504721
71.014724,0.360041,-1.995938,-8.875024
71.049213,0.348518,-1.973491,-9.076743
71.080888,0.133332,-2.046966,-8.703234
71.114218,0.240027,-1.799905,-9.111609
71.147870,0.381290,-1.965710,-9.170120
71.182194,0.142310,-2.755825,-9.650174
71.214279,0.312754,-2.165483,-9.594956
71.247751,0.384732,-2.183889,-10.010664
71.281146,0.359742,-2.238808,-10.154022
71.314464,0.248407,-2.046218,-10.042239
71.347621,0.131835,-2.539291,-9.532854
71.381206,0.317692,-2.222198,-9.651222
71.414452,0.294348,-2.398926,-9.700155
71.448504,0.165655,-2.498738,-9.673070
71.481116,0.391915,-2.261853,-9.692224
71.514337,0.193189,-2.541985,-9.483472
71.547740,0.272201,-2.316473,-9.645685
71.581125,0.217581,-2.274124,-9.531208
71.614502,0.137971,-2.414190,-9.124030
71.647957,0.277737,-2.414639,-9.570415
71.681547,0.299136,-2.277715,-9.346399
71.714422,0.252597,-2.454893,-9.353732
71.748032,0.256937,-2.587177,-9.095747
71.781506,0.318141,-2.616058,-9.503973
71.815867,0.317542,-2.078092,-9.791288
71.848431,0.204712,-2.270383,-9.680402
71.881949,0.224315,-2.408354,-9.535099
71.915925,0.224464,-2.474346,-9.517890
71.948491,0.153534,-2.576403,-9.540187
71.982289,0.240177,-2.480332,-9.466562
72.017676,0.346723,-2.387404,-9.979090
72.049071,0.181218,-2.459831,-9.785901
72.082703,0.233293,-2.400722,-9.507265
72.115421,0.258583,-2.341164,-9.799668
72.157067,0.204861,-2.263499,-9.622939
72.181736,0.269956,-2.033199,-9.673369
72.214873,0.216982,-2.186283,-9.611267
72.249036,0.253346,-2.278314,-9.794879
72.281834,0.389521,-1.977232,-9.526869
72.315102,0.109239,-2.023173,-9.635509
72.348854,0.235388,-2.259309,-9.567571
72.382592,0.235239,-2.390396,-9.332782
72.416274,0.286117,-2.326349,-9.349841
72.449675,0.308713,-2.409551,-9.633265
72.482367,0.282676,-2.408803,-9.519386
72.515386,0.372611,-2.288939,-9.497239
72.548751,0.142161,-2.877634,-9.326048
72.581822,0.295096,-2.636409,-9.446510
72.615923,0.167750,-2.582239,-9.348345
72.649805,0.179871,-2.608576,-9.289984
72.682467,0.170892,-2.613963,-9.430050
72.716802,0.186006,-2.519538,-9.629823
72.749252,0.203664,-2.448757,-9.644039
72.782550,0.141413,-2.610072,-9.769889
72.815525,0.223866,-2.454444,-9.679504
72.849449,0.247360,-2.441724,-9.596752
72.882331,0.219077,-2.622343,-9.651371
72.915464,0.195583,-2.413591,-9.676362
72.949507,0.203514,-2.551562,-9.505170
72.982955,0.208902,-2.385458,-9.697013
73.015400,0.265467,-2.264098,-9.314974
73.050185,0.230151,-2.499486,-9.517142
73.082653,0.261726,-2.274872,-9.638053
73.115458,0.349566,-2.106524,-9.260654
73.148910,0.334302,-2.265594,-9.421819
73.182276,0.200671,-2.178053,-9.543329
73.214399,0.233892,-2.159946,-9.437382
73.250356,0.177925,-2.502030,-9.545424
73.288575,0.238681,-2.112360,-9.589719
73.315618,0.271602,-2.145730,-9.582236
73.348600,0.260828,-2.197207,-9.732029
73.381038,0.115375,-2.429603,-9.476140
73.414359,0.202916,-2.501282,-9.826154
73.447835,0.267562,-2.351340,-9.913247
73.481542,0.154132,-2.402368,-9.716616
73.514342,0.150391,-2.362862,-9.510707
73.547815,0.159370,-2.575954,-9.588222
73.581141,0.336697,-2.258411,-9.750585
73.614452,0.291804,-2.398477,-9.501579
73.647687,0.199474,-2.500833,-9.455489
73.681136,0.276989,-2.358672,-9.511605
73.714601,0.206807,-2.400722,-9.336074
73.747748,0.253645,-2.504275,-9.550662
73.781084,0.303326,-2.210376,-9.292977
73.814613,0.274146,-2.332185,-9.282801
73.847884,0.208902,-2.461626,-9.274720
73.882052,0.159968,-2.515199,-9.172813
73.914364,0.291654,-2.309589,-9.406556
73.947619,0.143059,-2.423468,-9.057588
73.980980,0.212044,-2.333083,-9.485268
74.014353,0.334751,-1.978130,-9.546771
74.047682,0.202168,-2.436187,-9.527168
74.081011,0.257984,-2.408803,-9.602738
74.114340,0.205909,-2.307345,-9.596303
74.147709,0.196182,-2.167428,-9.625184
74.181051,0.267262,-2.149920,-9.845309
74.214411,0.199773,-2.298216,-9.720058
74.247589,0.292702,-2.262751,-9.776623
74.281013,0.258733,-2.167728,-9.903819
74.314432,0.249904,-2.366154,-9.663493
74.353664,0.224764,-2.301509,-9.890351
74.380981,0.183163,-2.492154,-9.630122
74.414346,0.181966,-2.401320,-9.414187
74.447620,0.227008,-2.327097,-9.492301
74.481021,0.351212,-2.199302,-9.670825
74.514377,0.340438,-2.266642,-9.548118
74.547665,0.237783,-2.192419,-9.568320
74.580931,0.235688,-2.384111,-9.460876
74.614347,0.212792,-2.299414,-9.685191
74.647643,0.223716,-2.284150,-9.332033
74.680972,0.242721,-2.229830,-9.661248
74.714491,0.248108,-2.503227,-9.461475
74.747768,0.203215,-2.381567,-9.528365
74.781494,0.211296,-2.316473,-9.547070
74.814398,0.272799,-2.197207,-9.658704
74.847871,0.275493,-2.310786,-9.775725
74.881025,0.283573,-2.111312,-9.303003
74.914445,0.255889,-2.354033,-9.699557
74.947804,0.231049,-2.266791,-9.376627
74.981126,0.107743,-2.490657,-9.259008
75.014289,0.211296,-2.359121,-9.335026
75.048336,0.248856,-2.209927,-9.279808
75.081364,0.175980,-2.587626,-9.089163
75.114348,0.319637,-2.062080,-9.520733
75.147632,0.308713,-2.713326,-9.534949
75.181029,0.280281,-2.403266,-9.793383
75.214512,0.275493,-2.168626,-9.746245
75.247636,0.338642,-2.228483,-9.778119
75.280948,0.332507,-2.365406,-9.878380
75.314321,0.235239,-2.497990,-9.650923
75.347722,0.175531,-2.486916,-9.807000
75.381022,0.333853,-2.231476,-9.452197
75.416848,0.208153,-2.352088,-9.607975
75.447572,0.242122,-2.275770,-9.494246
75.480963,0.234191,-2.291034,-9.647930
75.514373,0.291953,-2.446961,-9.818074
75.547637,0.244966,-2.483175,-9.563381
75.580968,0.219825,-2.628329,-9.654364
75.614276,0.390269,-2.423168,-9.756870
75.647652,0.319637,-2.344007,-9.609023
75.680932,0.413314,-2.011052,-9.580291
75.714338,0.272051,-2.344755,-9.228181
75.747855,0.154731,-2.369147,-8.880261
75.781009,0.178823,-2.509213,-9.098291
75.814342,0.176579,-2.420774,-9.191519
75.847587,0.326072,-2.161293,-9.407453
75.881025,0.207555,-2.463123,-9.368247
75.914427,0.318889,-2.472101,-9.651371
75.947928,0.338343,-2.646136,-9.664241
75.980978,0.272799,-2.581191,-9.531208
76.014303,0.261426,-2.703449,-9.771834
76.047653,0.210997,-2.347299,-9.382762
76.081037,0.167750,-2.373786,-9.491852
76.114414,0.163260,-2.410449,-9.774677
76.147648,0.207106,-2.437085,-9.511156
76.180963,0.215486,-2.268288,-9.665737
76.214342,0.239578,-2.125977,-9.616355
76.247657,0.285219,-2.294326,-9.716317
76.281059,0.310210,-2.157851,-9.636407
76.314354,0.162512,-2.237012,-9.441273
76.347681,0.252747,-2.254221,-9.499933
76.380962,0.218329,-2.316323,-9.446959
76.414433,0.205160,-2.491256,-9.407453
76.447634,0.298238,-2.164585,-9.452646
76.483526,0.310509,-2.491705,-9.632367
76.514306,0.301531,-2.390097,-9.575054
76.547646,0.345376,-2.230578,-9.442620
76.581341,0.373210,-2.452947,-9.569218
76.614253,0.193638,-2.657359,-9.552906
76.647700,0.136025,-2.415686,-9.753428
76.681002,0.358993,-2.195262,-9.785452
76.714325,0.271303,-2.363012,-9.748340
76.747673,0.214887,-2.375133,-9.317817
76.780969,0.315747,-2.230278,-9.783057
76.814363,0.152636,-2.557997,-9.715419
76.847728,0.109090,-2.546175,-9.656759
76.881290,0.171940,-2.382914,-9.779765
76.914300,0.158472,-2.516994,-9.714820
76.947871,0.162063,-2.314677,-9.625034
76.981020,0.215336,-2.271730,-9.380817
77.014358,0.268759,-2.333981,-9.501729
77.047781,0.168947,-2.308841,-9.135552
77.081166,0.231647,-2.182393,-9.234167
77.114342,0.201569,-2.463721,-9.430947
77.147868,0.153833,-2.278164,-9.239704
77.181049,0.294048,-2.286844,-9.307492
77.214365,0.301082,-2.230428,-9.364057
77.248024,0.220873,-2.492154,-9.213516
77.281097,0.160118,-2.442323,-9.528066
77.314943,0.319188,-2.118645,-10.190236
77.347690,0.295994,-2.279511,-9.853988
77.381008,0.352259,-1.854525,-9.954548
77.414584,0.199923,-2.163089,-9.869551
77.447660,0.253196,-2.301658,-10.236326
77.480975,0.246911,-2.478087,-9.995401
77.514453,0.230749,-2.140792,-9.775425
77.547763,0.267262,-1.944760,-9.994503
77.581110,0.261127,-1.814421,-9.829297
77.614306,0.168947,-1.869489,-9.464767
77.659066,0.246911,-2.267091,-9.754625
77.680945,0.179422,-2.386206,-9.249580
77.714350,0.161016,-2.432147,-8.717001
77.747622,0.324725,-2.093954,-8.560774
77.780934,0.153833,-2.425263,-8.703084
77.814395,0.313502,-2.065073,-8.640384
77.847707,0.487537,-1.722839,-8.540123
77.881032,0.295395,-2.075248,-8.830430
77.914748,0.204113,-2.055795,-8.930691
77.947751,0.370965,-2.075398,-9.318865
77.980965,0.330861,-2.296720,-9.705393
78.014446,0.196182,-2.579395,-9.833188
78.048039,0.098315,-2.690730,-9.824808
78.080991,0.170294,-2.705096,-9.873891
78.114358,0.236585,-2.558146,-10.027275
78.147713,0.259331,-2.472401,-10.010515
78.180936,0.139916,-2.559493,-10.087281
78.214352,0.128094,-2.495895,-10.141901
78.247640,0.164158,-2.565778,-10.068277
78.280973,0.162363,-2.486916,-9.487363
78.314357,0.375604,-2.231326,-9.761958
78.347777,0.241224,-2.111612,-9.708984
78.380992,0.200821,-2.131065,-9.220998
78.414569,0.213840,-2.497541,-9.409848
78.447743,0.260828,-2.099042,-9.466712
78.481000,0.339839,-1.864401,-9.192267
78.514817,0.373210,-1.843751,-9.311682
78.547704,0.359592,-1.994142,-9.377226
78.580964,0.327718,-2.116101,-9.533902
78.614355,0.232096,-1.861708,-9.419126
78.647793,0.253046,-1.891786,-9.444565
78.680956,0.261875,-1.957928,-9.462073
78.714283,0.407478,-2.227136,-9.808497
78.753607,0.300184,-2.270832,-9.741606
78.780955,0.209350,-2.491555,-9.485866
78.814270,0.263521,-2.330689,-9.656010
78.847606,0.234640,-2.605134,-9.494097
78.881184,0.284471,-2.549317,-9.502926
78.914268,0.172688,-2.955149,-9.435437
78.947908,0.142161,-2.958291,-9.245091
78.980951,0.231947,-2.985227,-9.592113
79.014338,0.190645,-3.039398,-9.541833
79.047599,0.105648,-2.814784,-9.411195
79.080933,0.155778,-2.436187,-9.469855
79.114462,0.301381,-2.493949,-9.550512
79.147701,0.304523,-2.441275,-9.282202
79.180927,0.254842,-2.331287,-9.453693
79.214338,0.187802,-2.434092,-9.622041
79.247746,0.180020,-2.137500,-9.567571
79.281022,0.244517,-2.153811,-9.565327
79.314563,0.284322,-2.043823,-9.641046
79.347680,0.170443,-2.619649,-10.085935
79.381008,0.104451,-2.611569,-9.917586
79.414731,0.121959,-2.550814,-9.667982
79.447676,0.276989,-2.344456,-9.724697
79.481117,0.244517,-2.180597,-9.829596
79.514393,0.217132,-2.053251,-9.546621
79.547748,0.335649,-2.024519,-9.586875
79.580943,0.426482,-1.889841,-9.541534
79.614349,0.178225,-2.100837,-9.670227
79.647758,0.143807,-2.166231,-9.855784
79.681155,0.223417,-2.231176,-9.772433
79.714351,0.299735,-2.034246,-9.517441
79.747633,0.382787,-1.686027,-9.427506
79.781006,0.238082,-1.933088,-9.680103
79.815736,0.236137,-1.973042,-9.428703
79.847621,0.259780,-2.043374,-9.439776
79.880983,0.244816,-2.090512,-9.411793
79.914490,0.137672,-2.138398,-9.543629
79.947690,0.206807,-2.206336,-9.498885
79.980981,0.265018,-2.109517,-9.452945
80.014316,0.285369,-2.254970,-9.276217
80.047640,0.152636,-2.113557,-9.367349
80.081112,0.102655,-2.415686,-9.433641
80.114388,0.161465,-2.500384,-9.236561
80.147636,0.005986,-2.670977,-9.314525
80.180988,0.056266,-2.541386,-8.831927
80.214339,0.116871,-2.475992,-9.269483
80.247636,-0.068536,-2.898285,-9.386354
80.281014,0.028133,-2.666338,-9.864613
80.314324,0.123904,-2.718713,-9.706141
80.347592,0.119265,-2.702701,-9.382313
80.381008,0.299585,-2.457287,-9.538690
80.414374,0.177327,-2.484372,-9.741307
80.447885,0.116721,-2.947068,-9.560538
80.481031,0.266215,-2.805656,-9.483173
80.514249,0.293599,-2.743404,-9.340114
80.547700,0.251849,-2.284150,-9.672022
80.581032,0.269058,-2.158151,-9.387551
80.614306,0.296742,-2.366154,-9.340563
80.647628,0.346423,-2.335926,-9.586277
80.681047,0.106845,-2.624737,-9.391292
80.714334,0.087691,-2.140942,-9.696115
80.747705,0.248557,-2.173863,-9.862518
80.780947,0.235538,-2.332185,-9.577897
80.814297,0.344777,-1.920967,-9.768841
80.847632,0.308414,-2.006562,-9.559341
80.880972,0.172688,-2.292530,-9.728438
80.915729,0.196182,-2.264547,-9.803708
80.947652,0.158173,-2.514151,-9.565028
80.980912,0.278037,-2.065073,-9.679055
81.014343,0.250652,-2.192419,-9.647481
81.047732,0.210997,-2.370943,-9.461475
81.081006,0.207854,-2.354482,-9.536296
81.114276,0.215486,-2.274124,-9.452496
81.147757,0.164607,-2.102483,-9.172514
81.181011,0.166104,-2.195412,-8.836566
81.214338,0.340138,-2.054149,-9.357922
81.247854,0.383685,-2.007310,-8.964959
81.281061,0.307217,-2.047116,-9.328592
81.314450,0.281628,-2.085873,-9.423316
81.347712,0.172838,-2.162041,-9.126424
81.381062,0.172688,-2.115353,-9.255566
81.414416,0.319188,-2.173564,-9.328592
81.447643,0.072577,-2.733378,-9.403563
81.480995,0.156975,-2.489909,-9.627129
81.514302,0.147398,-2.392940,-9.608424
81.547794,0.224913,-2.383662,-9.511156
81.580975,0.247958,-2.183291,-9.588821
81.614388,0.116572,-2.292979,-9.463420
81.647644,0.237932,-2.462973,-9.549465
81.681120,0.185408,-2.511757,-9.756421
81.714396,0.043247,-2.419128,-9.516992
81.747686,0.110436,-2.336974,-9.930156
81.780963,0.290008,-2.333981,-9.940182
81.814454,0.208303,-2.549168,-9.754625
81.847750,0.272949,-2.254820,-9.657058
81.881122,0.294946,-1.991299,-9.823311
81.914345,0.055518,-2.620248,-9.549165
81.947710,0.167750,-2.402368,-9.538241
81.981514,0.236286,-2.493650,-9.840221
82.022039,0.147997,-2.272927,-9.573707
82.047644,-0.023045,-2.626533,-9.393237
82.081014,0.188101,-2.437235,-9.444715
82.114351,0.085296,-2.673072,-9.409698
82.147635,0.083650,-2.722604,-9.580890
82.181034,0.112681,-2.753730,-9.309437
82.214281,0.202317,-2.747744,-9.140640
82.247776,0.225811,-2.392791,-9.317668
82.280972,0.179721,-2.463123,-9.264096
82.314348,0.147698,-2.177604,-9.301357
82.347692,0.025888,-2.240604,-9.415534
82.381103,0.106246,-2.161443,-9.514747
82.414798,0.128094,-2.088417,-9.489009
82.447660,0.225362,-2.076146,-9.726642
82.481013,0.211296,-2.124481,-9.808796
82.514274,0.147099,-2.204241,-9.438280
82.547752,0.150690,-2.037987,-9.627728
82.581019,0.098465,-2.113258,-9.546023
82.614252,0.218329,-2.370644,-9.780513
82.647640,0.238830,-2.259160,-9.732029
82.681001,0.136025,-2.426610,-9.785152
82.714343,0.221920,-2.468959,-9.727390
82.747630,0.180769,-2.664093,-9.658704
82.781036,0.133182,-2.499785,-9.527766
82.814427,0.294497,-2.167279,-9.678008
82.847666,0.313951,-2.414639,-9.558892
82.881131,0.245265,-2.227735,-9.583733
82.914381,0.078563,-2.312732,-9.498586
82.947681,0.154731,-2.142288,-9.521781
82.981193,0.362435,-2.123134,-9.559191
83.014375,0.156826,-2.132861,-9.256613
83.047678,0.281329,-1.857518,-9.189424
83.080999,0.211445,-2.100538,-8.935480
83.116242,0.331609,-2.116251,-9.614559
83.147665,0.254393,-1.710120,-9.054146
83.180941,0.165355,-2.566526,-9.572659
83.214241,0.205160,-2.436038,-9.825556
83.247616,0.151588,-2.364508,-9.649127
83.281002,0.274744,-2.332634,-9.957242
83.314274,0.136774,-2.728589,-10.024282
83.347710,0.239728,-2.217559,-9.789342
83.381027,0.050130,-2.502180,-9.343257
83.414314,-0.026337,-2.773033,-9.751782
83.448583,0.064496,-2.592265,-9.798620
83.481074,0.158173,-2.532258,-9.804456
83.514398,0.168049,-2.568621,-9.207531
83.547797,-0.029180,-2.450553,-9.061180
83.581084,0.323977,-2.461477,-9.398924
83.614492,-0.050579,-2.482876,-8.585614
83.647610,-0.166403,-2.443819,-8.488795
83.680972,0.184809,-2.244046,-8.749174
83.714270,0.322032,-2.066719,-9.701502
83.747704,0.137372,-2.360468,-9.332482
83.781090,0.132584,-2.140493,-9.173562
83.814345,0.129591,-2.360019,-9.343855
83.847622,0.335051,-2.385309,-10.033560
83.881027,0.142909,-2.612915,-9.914444
83.914366,0.129292,-2.382765,-9.613661
83.947672,0.076019,-2.300012,-9.369893
83.981029,0.184659,-2.176706,-9.200198
84.014387,0.103553,-2.556350,-9.777670
84.047678,0.304823,-2.384560,-9.522679
84.081678,0.368720,-1.925456,-9.843812
84.114415,0.088589,-1.858565,-9.741606
84.147599,0.356001,-1.784342,-9.990612
84.181049,0.321882,-1.208965,-10.035056
84.222807,0.192441,-1.839710,-9.589868
84.247642,0.210847,-2.629526,-9.512503
84.281015,0.002993,-2.360169,-9.163984
84.314535,0.319488,-2.362413,-9.264096
84.347709,-0.011223,-2.737867,-9.363608
84.381010,0.324127,-2.338770,-9.682198
84.414313,-0.022446,-2.212770,-8.696949
84.447752,0.333554,-1.898670,-8.732115
84.480961,0.186904,-2.928812,-9.816128
84.514300,0.148147,-2.874940,-9.575054
84.547913,0.193937,-2.373187,-8.751868
84.581132,0.076318,-2.999892,-8.758751
84.614346,-0.143208,-3.033263,-10.200262
84.647893,-0.105049,-2.966222,-9.736668
84.681062,-0.019903,-2.853242,-9.337720
84.714581,0.037560,-3.052566,-9.371090
84.747623,0.002544,-2.934648,-9.453095
84.781011,0.129740,-2.567723,-9.541534
84.814294,0.084099,-2.793385,-9.551859
84.847663,0.403886,-2.601692,-9.851294
84.881003,0.200671,-2.397130,-9.898432
84.914249,0.364231,-2.330240,-9.467011
84.947622,0.230300,-2.296870,-9.147224
84.980998,0.063000,-2.508614,-9.445612
85.014276,0.192890,-2.639103,-10.048823
85.047628,0.062551,-3.092222,-10.267751
85.081085,-0.122408,-2.921330,-9.193165
85.114282,-0.112232,-2.858779,-9.535398
85.147673,0.262474,-1.943862,-10.382377
85.181030,-0.232695,-2.820021,-9.971607
85.214282,0.185408,-2.439030,-9.422717
85.247708,0.088289,-3.989481,-11.111138
85.280950,0.371264,-2.363461,-10.152825
85.314278,-0.348518,-2.983431,-8.672407
85.347682,0.003591,-2.320064,-8.011584
85.381040,-0.145004,-3.552823,-8.939819
85.414287,0.205460,-2.404313,-9.595106
85.447776,0.341036,-1.999230,-9.855933
85.481122,-0.047138,-2.137500,-9.700005
85.514288,0.271752,-2.815532,-9.352385
85.547703,0.110736,-2.243597,-9.606628
85.581285,-0.203365,-3.152827,-9.517740
85.614324,-0.151588,-2.921330,-7.974323
85.647814,-0.156078,-3.051070,-9.010600
85.681078,-0.221322,-2.847406,-10.039096
85.714294,-0.028582,-2.487814,-9.790689
85.747679,0.121061,-2.904270,-10.272539
85.781151,-0.239578,-2.522830,-9.256464
85.814409,0.010774,-2.410449,-8.887145
85.847670,0.000000,-2.150220,-9.779017
85.881159,0.159519,-2.333532,-9.643889
85.914309,0.193788,-1.574693,-8.875323
85.947636,0.388323,-1.875625,-9.852641
85.981017,0.160268,-0.999166,-9.696713
86.014320,0.102056,-2.237461,-10.444928
86.047616,-0.078563,-2.070609,-10.206248
86.081006,0.017508,-2.489460,-9.817475
86.114351,0.393860,-1.849288,-9.798770
86.147835,0.370366,-1.662683,-9.787098
86.181009,0.321283,-2.729936,-9.681450
86.214304,0.525097,-1.439864,-10.295584
86.247638,0.239728,-1.788084,-8.893280
86.280997,0.767668,-1.832079,-9.156951
86.314371,-0.274146,-2.956496,-9.253471
86.347700,0.030378,-2.655564,-9.215911
86.380964,0.210099,-2.262003,-9.424662
86.414335,0.275493,-2.291782,-9.622640
86.451415,0.172838,-1.693210,-9.504721
86.480984,0.111783,-1.813673,-9.289834
86.514336,-0.227457,-3.316387,-9.147973
86.547979,0.247809,-2.718863,-9.341461
86.581006,0.021848,-2.698661,-8.767281
86.614481,-0.026936,-2.439928,-8.936976
86.647667,0.438603,-1.767882,-10.529626
86.680965,0.125999,-2.778271,-9.450551
86.714466,0.085446,-3.271494,-9.336373
86.747805,0.135277,-2.653918,-9.829297
86.781238,-0.243319,-3.102248,-9.227283
86.814737,0.170294,-2.380819,-10.409912
86.847773,-0.047437,-2.620697,-9.785003
86.881003,-0.071529,-3.220765,-10.403926
86.914835,-0.059857,-2.750886,-9.883168
86.947699,-0.048784,-2.151716,-8.891784
86.981022,0.438903,-1.922762,-8.616142
87.014332,0.274595,-2.054598,-10.076507
87.047752,0.309761,-2.423916,-9.719160
87.080968,0.233742,-2.270084,-8.595491
87.114594,0.293001,-2.556201,-10.347062
87.147779,-0.039356,-2.268886,-9.291331
87.181129,0.148595,-2.378724,-9.165481
87.214737,0.338492,-1.772072,-9.112058
87.247687,0.112232,-2.578947,-9.654215
87.280984,0.044893,-2.468061,-9.976695
87.314299,-0.058810,-2.340116,-10.286755
87.347871,0.487836,-1.936080,-9.701053
87.380938,0.111933,-2.059686,-9.326946
87.414273,0.105798,-1.705481,-9.907111
87.447606,0.036812,-2.009854,-9.421520
87.481030,0.201868,-1.645025,-9.536146
87.514315,0.131686,-2.006263,-9.737267
87.547583,0.108940,-2.324105,-8.984413
87.580939,0.270405,-2.346401,-9.214414
87.614270,0.007183,-2.439180,-9.305696
87.647633,-0.075270,-2.581640,-9.376926
87.680977,0.332058,-1.996237,-9.753278
87.714294,0.007333,-2.123433,-10.153573
87.747703,0.474368,-1.479071,-9.420772
87.781394,0.207255,-2.580144,-9.454142
87.814305,-0.220723,-2.708537,-9.675614
87.847835,-0.354654,-2.784257,-9.598248
87.881085,0.167301,-1.841207,-9.456836
87.914360,0.155479,-3.169587,-10.593673
87.947717,-0.127496,-2.543780,-8.973489
87.980959,0.119265,-2.018534,-9.075845
88.014263,0.292103,-2.507866,-9.385905
88.047607,0.133930,-2.589870,-9.346998
88.081050,-0.123605,-2.135704,-10.487726
88.114301,0.078263,-2.257962,-10.738079
88.147774,-0.000898,-2.521184,-9.847853
88.180961,0.203664,-2.143785,-10.205200
88.214459,0.258433,-0.944546,-9.785601
88.247883,0.067040,-1.593099,-9.828698
88.281037,0.406430,-1.779554,-9.611267
88.314350,-0.120612,-1.774017,-9.168474
88.347701,0.375454,-1.777908,-9.794430
88.381029,0.149044,-2.061781,-9.508911
88.414272,0.011074,-2.500683,-9.171616
88.447674,0.032921,-1.804245,-9.696863
88.480976,0.069734,-2.398776,-9.740110
88.514276,-0.017808,-2.546624,-9.570115
88.547710,0.028731,-2.130167,-9.748190
88.582071,0.366176,-1.661336,-9.872244
88.614286,0.211146,-2.091410,-8.990249
88.647586,-0.039955,-2.459831,-9.080334
88.681013,-0.182864,-2.609324,-9.415983
88.714340,0.085446,-1.637842,-9.769889
88.747657,0.030826,-1.404399,-9.221597
88.780974,0.107893,-1.331822,-9.414936
88.814345,0.518214,-0.926589,-9.158897
88.847741,0.263222,-1.947753,-9.172065
88.880977,-0.130489,-2.224293,-9.864912
88.914365,0.166702,-1.591303,-10.023683
88.947808,0.097567,-1.766236,-9.457883
88.980957,0.315298,-1.399162,-9.905765
89.014389,0.134679,-1.722839,-9.439627
89.047843,-0.077964,-2.089315,-9.642842
89.080940,0.499059,-1.472636,-9.172963
89.114275,-0.246911,-2.924472,-8.968551
89.147621,-0.111484,-2.318418,-9.361812
89.181036,-0.031724,-2.264098,-9.436933
89.214434,0.080059,-2.667086,-9.720058
89.247663,0.000449,-2.089464,-9.914444
89.281218,-0.018556,-2.311834,-9.952004
89.314469,0.312903,-2.045918,-9.446510
89.347755,0.400145,-1.764889,-9.630721
89.381059,0.308414,-1.913185,-9.729934
89.414329,0.276241,-1.366839,-9.781860
89.447667,0.242721,-1.783295,-9.086320
89.480964,0.038309,-2.207832,-10.106436
89.514272,0.337894,-2.165184,-9.634462
89.547630,0.216683,-2.181196,-9.277713
89.581013,0.206956,-2.358373,-9.687884
89.614312,0.188700,-2.348945,-9.888107
89.648010,0.374107,-2.564730,-9.870149
89.683022,-0.147997,-2.024968,-9.641046
89.714270,0.065095,-2.352537,-9.005213
89.747698,0.367972,-2.303304,-9.367050
89.781037,0.205759,-2.581191,-9.882570
89.814296,0.264419,-2.003420,-10.571825
89.847669,0.150840,-1.795117,-10.158511
89.880989,0.405233,-2.081533,-10.491766
89.914295,0.150690,-2.352387,-9.522828
89.947700,-0.134978,-2.618153,-9.617702
89.981117,-0.054919,-2.515199,-9.294323
90.014334,0.294797,-2.271131,-9.824957
90.048127,0.076019,-2.373636,-9.233718
90.081097,0.375753,-2.104578,-9.178649
90.114386,0.389820,-2.140792,-9.074947
90.147967,0.288063,-2.126875,-9.320810
90.181052,0.173586,-2.553507,-9.451149
90.214464,0.185707,-2.350891,-9.820318
90.247588,0.299884,-2.226088,-10.087431
90.281173,0.093676,-2.627880,-9.782159
90.314242,0.390568,-2.238359,-10.193977
90.347669,0.407478,-1.878917,-9.819421
90.381080,0.136175,-2.204241,-9.737865
90.414488,0.273248,-2.278613,-10.017697
90.447633,0.316046,-2.136452,-9.851444
90.480988,0.192441,-1.990251,-9.524325
90.514380,0.035914,-1.953289,-9.473296
90.547682,0.351960,-2.270981,-9.664241
90.581022,0.300782,-2.265145,-9.380817
90.614275,0.423639,-1.636046,-9.081830
90.647792,0.087242,-2.388002,-9.043821
90.681006,0.371563,-2.338770,-9.795627
90.714288,0.312155,-2.531210,-9.656759
90.747620,0.411817,-2.495895,-8.827437
90.780952,0.236885,-2.698062,-9.972505
90.814367,0.287314,-2.479733,-9.951855
90.847630,0.395357,-2.140193,-9.786798
90.881062,0.090235,-2.750288,-9.713922
90.914312,0.147548,-2.598400,-10.108830
90.948165,0.145603,-2.372140,-9.584481
90.980925,0.355851,-2.231775,-10.209839
91.014331,0.228804,-2.442622,-10.368012
91.047704,0.137821,-2.458933,-9.602738
91.081036,0.326671,-2.545127,-9.395183
91.114649,0.627453,-2.035892,-10.708749
91.147677,0.198726,-2.403715,-9.438729
91.180972,0.149344,-2.344306,-8.528301
91.214485,0.082154,-2.428106,-9.138844
91.247612,0.290307,-2.425712,-8.785388
91.281070,0.268160,-2.159048,-9.199749
91.314592,0.252148,-2.323955,-9.389945
91.347682,0.452969,-2.468510,-8.539225
91.381009,0.443691,-1.872333,-9.210972
91.414501,0.389670,-1.833126,-9.226834
91.447684,0.165505,-2.663794,-9.226086
91.480958,0.419898,-2.343109,-9.971757
91.514358,0.268160,-2.061631,-9.745347
91.547619,0.244816,-2.419577,-9.833637
91.580964,0.379943,-2.374983,-10.654578
91.614498,0.225213,-2.131813,-10.094764
91.647730,0.084997,-2.037987,-9.625184
91.681013,0.149493,-2.402368,-9.368247
91.714304,0.326970,-2.638205,-9.539439
91.747626,0.391765,-2.487515,-9.499334
91.781016,0.228954,-2.575205,-9.085572
91.814411,0.294797,-2.244345,-9.140939
91.847714,0.541707,-2.163089,-9.272027
91.882984,0.417055,-2.440377,-8.989351
91.914320,0.269956,-2.684894,-9.259606
91.947771,0.521955,-2.322608,-8.758153
91.980935,-0.031126,-2.788147,-8.560923
92.014341,0.483496,-2.236863,-9.730533
92.047632,0.404784,-2.554555,-9.654364
92.080931,0.687310,-2.204540,-9.092754
92.114309,0.291355,-2.285796,-9.472548
92.148389,-0.038458,-2.284749,-9.556797
92.181072,0.477960,-1.856021,-9.767794
92.214262,0.348518,-2.185386,-9.619049
92.247760,0.160717,-2.469707,-9.540785
92.280965,-0.020202,-2.244046,-9.834534
92.314294,0.570439,-1.982769,-9.339216
92.348068,0.242272,-2.261703,-9.089462
92.381098,0.061054,-2.951109,-9.958439
92.414297,0.275792,-2.059237,-8.337357
92.448161,0.257685,-2.544828,-9.592263
92.481108,0.311108,-2.754627,-9.353732
92.514341,0.207405,-2.745649,-9.286692
92.547635,0.296443,-2.532557,-9.809544
92.581159,0.269657,-2.713625,-9.641794
92.614591,0.233144,-2.736221,-9.799967
92.647730,0.217132,-2.362862,-9.631768
92.681057,0.152785,-2.626084,-9.937339
92.714468,0.440549,-1.888943,-9.392938
92.748401,0.237783,-2.312732,-9.723799
92.780973,0.148895,-2.545127,-9.442021
92.814283,0.168797,-2.420774,-9.657806
92.847697,0.263072,-2.395484,-9.228331
92.880987,0.249006,-2.550215,-9.427955
92.914309,0.067040,-2.427358,-9.129118
92.947637,0.038907,-2.267390,-9.122833
92.980963,-0.017508,-2.640899,-8.898069
93.020912,-0.235388,-3.306211,-9.534201
93.047699,0.530185,-1.467548,-9.217557
93.080940,0.321134,-2.115353,-9.531059
93.114278,0.362435,-2.228034,-9.800266
93.147676,0.169545,-2.266941,-9.061479
93.181162,0.079011,-2.716019,-8.990548
93.214335,0.391316,-2.204839,-9.627129
93.247628,0.433815,-2.316922,-10.305760
93.282038,0.227158,-2.284150,-9.977593
93.314352,0.285968,-2.379173,-9.270381
93.347758,0.334153,-2.589571,-9.305547
93.380971,0.331010,-2.189426,-9.663193
93.414986,0.342682,-2.358522,-9.658704
93.447768,0.300782,-2.631022,-9.830195
93.481013,0.372312,-2.495146,-10.139806
93.514343,0.257984,-2.481230,-10.198765
93.547858,0.335499,-2.360318,-10.491168
93.581010,0.511330,-1.968403,-10.078303
93.614297,0.260079,-2.576852,-9.884366
93.647764,0.215635,-2.855936,-9.852043
93.680981,0.316495,-2.227585,-9.447558
93.714308,0.641220,-1.849736,-9.104875
93.747682,0.439202,-2.181046,-9.070757
93.781494,0.290457,-2.835285,-9.447857
93.814300,0.528090,-2.106524,-9.149170
93.847683,0.261875,-2.642844,-9.310485
93.881104,0.453418,-2.525075,-8.773416
93.914306,0.331010,-2.445764,-9.298064
93.947725,0.352409,-2.399076,-9.449503
93.981104,0.135128,-2.081982,-8.911088
94.014303,0.029180,-1.931741,-9.345651
94.047810,0.351661,-2.075697,-9.393686
94.081146,0.472872,-1.972294,-9.394734
94.114347,0.268609,-2.532258,-9.797872
94.147629,0.401043,-2.185685,-9.445463
94.185230,0.072278,-2.349095,-9.482724
94.214274,0.157873,-2.076595,-9.785302
94.247646,0.205460,-2.172516,-9.460876
94.280976,0.295844,-2.258860,-9.953052
94.314309,0.247809,-2.237611,-10.051367
94.347677,0.229103,-2.229081,-9.705991
94.381252,0.316944,-2.196908,-9.678158
94.414304,0.253495,-2.336974,-9.866708
94.447626,0.167301,-2.347299,-10.133072
94.481764,0.370815,-1.955684,-9.698509
94.514257,0.375604,-1.981572,-9.687884
94.547643,0.383834,-2.028560,-9.666635
94.581287,0.486190,-2.006413,-9.355527
94.614428,0.213391,-2.391893,-9.242996
94.647776,0.299436,-2.370644,-9.194063
94.681015,0.166852,-2.471952,-9.388598
94.714333,0.319937,-2.097545,-9.351786
94.748030,0.007931,-2.554255,-8.993092
94.781073,0.092629,-2.759266,-9.882420
94.814295,0.163111,-2.649578,-10.032063
94.847644,-0.013318,-2.578647,-9.552757
94.881012,0.284172,-2.775577,-10.087431
94.914273,0.045491,-2.628778,-9.759863
94.947616,0.383834,-2.128222,-9.747742
94.981013,0.040853,-2.832591,-10.151778
95.014277,0.175232,-3.331052,-9.762107
95.047597,0.221920,-3.059749,-8.499869
95.080998,0.219825,-2.702851,-9.032299
95.114603,0.070033,-2.709435,-9.065819
95.147701,0.251699,-2.494997,-9.961432
95.182018,0.313951,-2.423916,-9.734423
95.214331,0.573282,-2.100388,-10.072317
95.247657,0.187802,-2.736221,-9.510258
95.280961,0.197529,-2.544529,-9.585529
95.314297,0.382338,-2.115652,-9.505619
95.347591,0.492176,-2.022724,-9.836480
95.380952,0.266813,-1.756808,-9.511455
95.414299,0.258583,-2.352237,-9.286991
95.448278,0.315447,-2.121638,-9.851294
95.481010,0.533477,-1.624973,-9.723649
95.515047,0.451473,-2.184787,-9.294772
95.547679,0.333554,-1.953439,-9.019878
95.581048,0.426183,-1.988455,-9.184785
95.614345,0.359592,-1.989054,-9.078538
95.647801,0.372910,-2.329791,-9.702400
95.681841,0.278785,-2.479284,-9.276516
95.714340,0.391466,-1.779554,-8.763989
95.747774,0.367373,-2.234468,-9.780813
95.780930,0.246761,-2.412993,-9.181044
95.814295,0.412865,-2.654217,-8.859311
95.847824,0.338792,-2.275620,-9.194661
95.881089,0.433366,-2.219055,-9.578346
95.914324,0.190346,-2.413591,-9.753727
95.947636,0.341635,-2.064474,-9.994802
95.980951,0.325922,-2.458484,-10.348259
96.014298,0.408974,-1.964363,-10.214029
96.047643,0.545748,-1.648317,-10.137113
96.081709,-0.103852,-2.880926,-9.450251
96.114345,0.011223,-2.530313,-9.434090
96.147669,0.428428,-2.700008,-9.716167
96.181004,0.512228,-2.582538,-9.883318
96.214392,0.279383,-2.291183,-9.883468
96.247762,0.158771,-2.602740,-8.769376
96.280958,0.201419,-2.970861,-8.756357
96.314291,0.422741,-2.750138,-9.080334
96.350280,-0.019603,-2.883021,-9.968465
96.381098,0.315447,-2.945123,-10.012011
96.414383,0.460302,-2.596006,-10.010215
96.447593,0.307965,-1.963764,-8.900014
96.480923,0.160866,-2.170421,-9.251526
96.514340,0.243170,-2.770938,-10.400035
96.547681,0.121360,-2.719312,-10.217770
96.582212,0.415858,-1.903309,-9.654664
96.614337,0.186605,-2.364209,-9.935843
96.649157,0.610244,-2.008358,-10.138010
96.681911,0.258134,-1.584868,-9.402216
96.714302,0.313652,-2.422869,-9.777969
96.747729,0.324576,-2.199901,-9.924171
96.780960,0.592436,-2.089315,-9.819421
96.814345,0.402540,-2.309290,-9.816278
96.847789,0.300782,-2.541087,-9.667383
96.881100,0.490679,-1.884454,-9.222046
96.914267,0.318141,-2.137500,-8.727177
96.947650,0.296742,-2.190773,-8.374019
96.980960,0.273248,-2.626234,-8.958674
97.014268,0.462995,-2.436187,-8.820255
97.047673,0.474069,-2.499935,-9.162189
97.080981,0.307067,-2.580144,-8.740196
97.114250,0.151588,-2.335926,-8.382100
97.147663,0.241673,-2.553507,-8.960470
97.181076,0.302578,-2.600196,-9.291181
97.214336,0.259481,-2.455042,-9.822713
97.248420,-0.013019,-3.023087,-9.556049
97.281007,0.103703,-2.562187,-9.475840
97.315310,0.181068,-2.759117,-9.848900
97.347671,0.204861,-2.382316,-10.302618
97.381076,0.329214,-2.784107,-10.344967
97.416693,0.376801,-2.477938,-9.745048
97.447605,0.232395,-2.442173,-9.583883
97.480990,0.240925,-2.508315,-8.980971
97.514470,0.451173,-2.558894,-9.038434
97.547672,0.274595,-2.371242,-9.337570
97.581262,0.311257,-2.592714,-9.328442
97.614350,0.046988,-2.626533,-9.266639
97.647906,0.205310,-2.329941,-9.507265
97.680967,0.301231,-2.673820,-10.252038
97.714563,0.158771,-2.779318,-10.022037
97.747614,0.128543,-2.657509,-8.497924
97.781502,0.245863,-2.295972,-9.093802
97.814240,0.162812,-2.519389,-9.424214
97.847639,0.194237,-2.511757,-9.730832
97.881081,0.230001,-2.099939,-8.956579
97.914801,0.167301,-2.277117,-8.896124
97.947766,0.317692,-1.918572,-9.811938
97.980989,0.262025,-1.901363,-9.361812
98.014423,0.099961,-2.252126,-9.021973
98.047630,0.043845,-2.000726,-9.266340
98.080924,0.108940,-2.052353,-9.060581
98.114300,0.304823,-2.073004,-9.474643
98.147840,0.201868,-2.037838,-9.349542
98.181012,0.158173,-2.601393,-8.941765
98.214980,0.291355,-2.323506,-9.404760
98.247633,0.198576,-2.031852,-9.890501
98.281042,0.188101,-2.167728,-9.773929
98.314373,0.494420,-2.188977,-9.446211
98.347629,0.147548,-2.218157,-9.026163
98.380992,0.131985,-2.191072,-9.856682
98.414333,0.234341,-2.232373,-9.378872
98.447621,0.485292,-1.922463,-10.138459
98.481041,0.254393,-2.108619,-9.773031
98.514934,0.189598,-2.338321,-9.119092
98.547617,0.288811,-2.044572,-10.578110
98.580975,0.151738,-2.280409,-10.242910
98.614272,-0.070482,-2.814185,-9.009553
98.647619,0.438005,-2.110265,-8.940867
98.681018,0.212643,-2.623091,-9.735321
98.714258,0.216533,-1.878767,-8.888791
98.747934,0.259780,-2.049211,-8.770723
98.781024,-0.007632,-2.562486,-8.850183
98.814315,0.306469,-2.192568,-9.622041
98.847600,0.374257,-1.924408,-9.256314
98.881001,0.467933,-1.452734,-9.449802
98.914306,0.177028,-2.234468,-8.905551
98.947733,0.169396,-1.758754,-9.188975
98.980984,-0.035016,-2.303005,-8.944159
99.014305,0.138270,-2.513104,-9.503973
99.047656,0.247210,-2.075099,-9.898731
99.081023,0.135128,-2.151716,-9.033047
99.114440,-0.249305,-2.712278,-9.700903
99.147570,-0.069883,-2.884817,-9.986272
99.180941,0.213092,-2.255718,-9.391442
99.214423,0.180020,-2.786052,-9.674716
99.247595,0.104151,-2.219953,-9.134205
99.280974,0.193039,-2.385907,-9.334278
99.314427,0.237034,-2.005365,-9.631918
99.347742,-0.113280,-2.423318,-9.915791
99.380963,0.069734,-2.108619,-8.772070
99.414345,0.209350,-2.602141,-9.321858
99.447786,0.432917,-1.772670,-10.368012
99.481000,0.166104,-1.913484,-9.638951
99.516022,0.033071,-2.662597,-9.164134
